[System]
Platform=SEANO USV
Start_Time=2026-05-02 12:21:49
Timezone=WIB

[Sensor]
Name=IMU

[Columns]
Timestamp(WIB)	AccX	AccY	AccZ

[Data]
2026-05-02 12:21:52.261	-0.1569064	-0.05883989999999881	9.77723005
2026-05-02 12:21:52.496	-0.18632635	-0.0882598499999988	9.85568325
2026-05-02 12:21:52.751	-0.2353596	-0.1569063999999988	9.8654899
2026-05-02 12:21:52.995	-0.1569064	-0.0882598499999988	9.83606995
2026-05-02 12:21:53.255	-0.1176798	-0.0882598499999988	9.81645665
2026-05-02 12:21:53.496	-0.16671305	-0.1470997499999988	9.85568325
2026-05-02 12:21:53.762	-0.1765197	-0.1470997499999988	9.8654899
2026-05-02 12:21:53.997	-0.12748645	-0.0588398999999988	9.79684335
2026-05-02 12:21:54.262	-0.1372931	-0.1470997499999988	9.83606995
2026-05-02 12:21:54.492	-0.1765197	-0.1078731499999988	9.87529655
2026-05-02 12:21:54.756	-0.16671305	-0.1176797999999988	9.8262633
2026-05-02 12:21:54.997	-0.14709975	-0.1470997499999988	9.83606995
2026-05-02 12:21:55.256	-0.14709975	-0.0980664999999988	9.87529655
2026-05-02 12:21:55.496	-0.1569064	-0.0980664999999988	9.81645665
2026-05-02 12:21:55.755	-0.1765197	-0.16671304999999878	9.8458766
2026-05-02 12:21:55.995	-0.1372931	-0.0980664999999988	9.85568325
2026-05-02 12:21:56.255	-0.1372931	-0.0882598499999988	9.83606995
2026-05-02 12:21:56.494	-0.18632635	-0.1372930999999988	9.8654899
2026-05-02 12:21:56.755	-0.1569064	-0.1470997499999988	9.81645665
2026-05-02 12:21:56.995	-0.1372931	-0.0980664999999988	9.8458766
2026-05-02 12:21:57.257	-0.16671305	-0.1176797999999988	9.8654899
2026-05-02 12:21:57.496	-0.16671305	-0.1078731499999988	9.8262633
2026-05-02 12:21:57.754	-0.1372931	-0.1372930999999988	9.8851032
2026-05-02 12:21:58.001	-0.16671305	-0.1372930999999988	9.81645665
2026-05-02 12:21:58.255	-0.1569064	-0.05883989999999879	9.85568325
2026-05-02 12:21:58.494	-0.14709975	-0.1176797999999988	9.83606995
2026-05-02 12:21:58.755	-0.1569064	-0.17651969999999878	9.8262633
2026-05-02 12:21:58.995	-0.1569064	-0.0686465499999988	9.8654899
2026-05-02 12:21:59.257	-0.16671305	-0.0980664999999988	9.8458766
2026-05-02 12:21:59.493	-0.16671305	-0.1569063999999988	9.8458766
2026-05-02 12:21:59.754	-0.12748645	-0.1176797999999988	9.81645665
2026-05-02 12:21:59.993	-0.18632635	-0.05883989999999879	9.85568325
2026-05-02 12:22:00.256	-0.1765197	-0.17651969999999878	9.85568325
2026-05-02 12:22:00.494	-0.10787315	-0.0882598499999988	9.83606995
2026-05-02 12:22:00.754	-0.1569064	-0.0882598499999988	9.8262633
2026-05-02 12:22:00.994	-0.20593965	-0.16671304999999878	9.8851032
2026-05-02 12:22:01.256	-0.1176798	-0.0980664999999988	9.8262633
2026-05-02 12:22:01.498	-0.1372931	-0.0686465499999988	9.8262633
2026-05-02 12:22:01.754	-0.20593965	-0.19613299999999878	9.87529655
2026-05-02 12:22:01.995	-0.14709975	-0.1078731499999988	9.83606995
2026-05-02 12:22:02.254	-0.12748645	-0.029419949999998793	9.8458766
2026-05-02 12:22:02.495	-0.16671305	-0.18632634999999878	9.8458766
2026-05-02 12:22:02.755	-0.18632635	-0.1372930999999988	9.8458766
2026-05-02 12:22:03.001	-0.12748645	-0.0588398999999988	9.8262633
2026-05-02 12:22:03.254	-0.1372931	-0.1470997499999988	9.85568325
2026-05-02 12:22:03.495	-0.18632635	-0.1274864499999988	9.85568325
2026-05-02 12:22:03.752	-0.1569064	-0.0882598499999988	9.83606995
2026-05-02 12:22:04.001	-0.1372931	-0.1470997499999988	9.8458766
2026-05-02 12:22:04.257	-0.16671305	-0.1176797999999988	9.8262633
2026-05-02 12:22:04.496	-0.16671305	-0.0784531999999988	9.85568325
2026-05-02 12:22:04.755	-0.14709975	-0.1470997499999988	9.83606995
2026-05-02 12:22:04.995	-0.1569064	-0.1274864499999988	9.8654899
2026-05-02 12:22:05.255	-0.16671305	-0.0784531999999988	9.8262633
2026-05-02 12:22:05.495	-0.1569064	-0.1176797999999988	9.85568325
2026-05-02 12:22:05.755	-0.1372931	-0.1470997499999988	9.8262633
2026-05-02 12:22:05.992	-0.16671305	-0.0980664999999988	9.8458766
2026-05-02 12:22:06.254	-0.18632635	-0.1078731499999988	9.8654899
2026-05-02 12:22:06.495	-0.1176798	-0.1372930999999988	9.81645665
2026-05-02 12:22:06.754	-0.14709975	-0.1176797999999988	9.85568325
2026-05-02 12:22:06.995	-0.196133	-0.0882598499999988	9.8458766
2026-05-02 12:22:07.256	-0.1569064	-0.1470997499999988	9.8262633
2026-05-02 12:22:07.494	-0.12748645	-0.0980664999999988	9.87529655
2026-05-02 12:22:07.752	-0.1569064	-0.0980664999999988	9.80665
2026-05-02 12:22:07.995	-0.1765197	-0.17651969999999878	9.87529655
2026-05-02 12:22:08.254	-0.16671305	-0.0784531999999988	9.85568325
2026-05-02 12:22:08.494	-0.14709975	-0.0980664999999988	9.79684335
2026-05-02 12:22:08.754	-0.1569064	-0.16671304999999878	9.8851032
2026-05-02 12:22:08.997	-0.14709975	-0.1078731499999988	9.81645665
2026-05-02 12:22:09.254	-0.1765197	-0.0784531999999988	9.8654899
2026-05-02 12:22:09.492	-0.16671305	-0.1470997499999988	9.8654899
2026-05-02 12:22:09.754	-0.1372931	-0.1078731499999988	9.77723005
2026-05-02 12:22:09.992	-0.1569064	-0.0980664999999988	9.8851032
2026-05-02 12:22:10.255	-0.18632635	-0.1470997499999988	9.8458766
2026-05-02 12:22:10.495	-0.1569064	-0.1176797999999988	9.81645665
2026-05-02 12:22:10.754	-0.1372931	-0.0784531999999988	9.8654899
2026-05-02 12:22:10.996	-0.16671305	-0.1569063999999988	9.81645665
2026-05-02 12:22:11.254	-0.1765197	-0.1274864499999988	9.8654899
2026-05-02 12:22:11.495	-0.12748645	-0.0784531999999988	9.8458766
2026-05-02 12:22:11.754	-0.14709975	-0.1274864499999988	9.80665
2026-05-02 12:22:11.995	-0.18632635	-0.1569063999999988	9.87529655
2026-05-02 12:22:12.254	-0.14709975	-0.0784531999999988	9.8458766
2026-05-02 12:22:12.495	-0.14709975	-0.0980664999999988	9.8458766
2026-05-02 12:22:12.754	-0.16671305	-0.1569063999999988	9.85568325
2026-05-02 12:22:12.994	-0.1569064	-0.1176797999999988	9.8262633
2026-05-02 12:22:13.254	-0.1765197	-0.0980664999999988	9.85568325
2026-05-02 12:22:13.495	-0.1372931	-0.1176797999999988	9.85568325
2026-05-02 12:22:13.756	-0.1372931	-0.1078731499999988	9.80665
2026-05-02 12:22:13.992	-0.18632635	-0.1372930999999988	9.8851032
2026-05-02 12:22:14.253	-0.1569064	-0.1176797999999988	9.81645665
2026-05-02 12:22:14.492	-0.1176798	-0.0882598499999988	9.85568325
2026-05-02 12:22:14.754	-0.16671305	-0.1274864499999988	9.8458766
2026-05-02 12:22:14.992	-0.18632635	-0.1176797999999988	9.8458766
2026-05-02 12:22:15.255	-0.1372931	-0.1176797999999988	9.85568325
2026-05-02 12:22:15.493	-0.1372931	-0.0980664999999988	9.81645665
2026-05-02 12:22:15.755	-0.18632635	-0.1274864499999988	9.87529655
2026-05-02 12:22:15.992	-0.14709975	-0.1274864499999988	9.83606995
2026-05-02 12:22:16.253	-0.1372931	-0.0882598499999988	9.81645665
2026-05-02 12:22:16.492	-0.1765197	-0.1176797999999988	9.8851032
2026-05-02 12:22:16.754	-0.1372931	-0.1372930999999988	9.80665
2026-05-02 12:22:16.995	-0.14709975	-0.1176797999999988	9.8458766
2026-05-02 12:22:17.254	-0.20593965	-0.0784531999999988	9.8851032
2026-05-02 12:22:17.496	-0.12748645	-0.1470997499999988	9.80665
2026-05-02 12:22:17.755	-0.1176798	-0.1372930999999988	9.85568325
2026-05-02 12:22:17.996	-0.18632635	-0.0784531999999988	9.8458766
2026-05-02 12:22:18.254	-0.1765197	-0.1078731499999988	9.8654899
2026-05-02 12:22:18.496	-0.1372931	-0.1372930999999988	9.8458766
2026-05-02 12:22:18.756	-0.12748645	-0.1176797999999988	9.80665
2026-05-02 12:22:18.994	-0.18632635	-0.0882598499999988	9.8851032
2026-05-02 12:22:19.254	-0.1765197	-0.1372930999999988	9.8458766
2026-05-02 12:22:19.492	-0.12748645	-0.0980664999999988	9.80665
2026-05-02 12:22:19.755	-0.1372931	-0.1078731499999988	9.8654899
2026-05-02 12:22:19.993	-0.1765197	-0.1274864499999988	9.8262633
2026-05-02 12:22:20.254	-0.16671305	-0.1176797999999988	9.8654899
2026-05-02 12:22:20.494	-0.1372931	-0.0980664999999988	9.8262633
2026-05-02 12:22:20.755	-0.1372931	-0.1078731499999988	9.8262633
2026-05-02 12:22:20.996	-0.16671305	-0.1274864499999988	9.87529655
2026-05-02 12:22:21.252	-0.16671305	-0.1274864499999988	9.8458766
2026-05-02 12:22:21.492	-0.1569064	-0.0882598499999988	9.8262633
2026-05-02 12:22:21.755	-0.1569064	-0.1176797999999988	9.8458766
2026-05-02 12:22:21.995	-0.14709975	-0.1274864499999988	9.8458766
2026-05-02 12:22:22.254	-0.16671305	-0.1078731499999988	9.8654899
2026-05-02 12:22:22.494	-0.1569064	-0.1372930999999988	9.81645665
2026-05-02 12:22:22.754	-0.16671305	-0.1078731499999988	9.8458766
2026-05-02 12:22:22.995	-0.14709975	-0.0882598499999988	9.87529655
2026-05-02 12:22:23.255	-0.1372931	-0.1470997499999988	9.7870367
2026-05-02 12:22:23.496	-0.18632635	-0.1372930999999988	9.8654899
2026-05-02 12:22:23.755	-0.14709975	-0.0882598499999988	9.8458766
2026-05-02 12:22:23.995	-0.12748645	-0.0784531999999988	9.8262633
2026-05-02 12:22:24.253	-0.1765197	-0.16671304999999878	9.85568325
2026-05-02 12:22:24.492	-0.1765197	-0.1372930999999988	9.83606995
2026-05-02 12:22:24.754	-0.12748645	-0.05883989999999879	9.87529655
2026-05-02 12:22:24.994	-0.1569064	-0.1176797999999988	9.8262633
2026-05-02 12:22:25.254	-0.18632635	-0.17651969999999878	9.81645665
2026-05-02 12:22:25.496	-0.1372931	-0.0882598499999988	9.87529655
2026-05-02 12:22:25.754	-0.12748645	-0.0882598499999988	9.81645665
2026-05-02 12:22:25.995	-0.196133	-0.1470997499999988	9.8654899
2026-05-02 12:22:26.252	-0.1765197	-0.1176797999999988	9.8458766
2026-05-02 12:22:26.495	-0.1176798	-0.0980664999999988	9.80665
2026-05-02 12:22:26.755	-0.14709975	-0.11767979999999878	9.89490985
2026-05-02 12:22:26.995	-0.18632635	-0.1372930999999988	9.81645665
2026-05-02 12:22:27.254	-0.16671305	-0.1078731499999988	9.85568325
2026-05-02 12:22:27.497	-0.1176798	-0.0980664999999988	9.8458766
2026-05-02 12:22:27.755	-0.1569064	-0.1372930999999988	9.81645665
2026-05-02 12:22:27.994	-0.18632635	-0.1372930999999988	9.8851032
2026-05-02 12:22:28.252	-0.1372931	-0.0784531999999988	9.83606995
2026-05-02 12:22:28.494	-0.14709975	-0.1274864499999988	9.8262633
2026-05-02 12:22:28.755	-0.1765197	-0.1274864499999988	9.87529655
2026-05-02 12:22:28.997	-0.1372931	-0.1078731499999988	9.8262633
2026-05-02 12:22:29.255	-0.1569064	-0.1274864499999988	9.85568325
2026-05-02 12:22:29.492	-0.18632635	-0.1274864499999988	9.85568325
2026-05-02 12:22:29.754	-0.12748645	-0.0784531999999988	9.80665
2026-05-02 12:22:29.993	-0.1569064	-0.1274864499999988	9.8654899
2026-05-02 12:22:30.254	-0.18632635	-0.1569063999999988	9.8654899
2026-05-02 12:22:30.494	-0.14709975	-0.0882598499999988	9.8262633
2026-05-02 12:22:30.754	-0.14709975	-0.0980664999999988	9.85568325
2026-05-02 12:22:30.994	-0.16671305	-0.1470997499999988	9.80665
2026-05-02 12:22:31.254	-0.1569064	-0.1078731499999988	9.87529655
2026-05-02 12:22:31.494	-0.12748645	-0.1078731499999988	9.8458766
2026-05-02 12:22:31.754	-0.16671305	-0.1372930999999988	9.8262633
2026-05-02 12:22:31.994	-0.1765197	-0.1274864499999988	9.8458766
2026-05-02 12:22:32.253	-0.1372931	-0.0686465499999988	9.8458766
2026-05-02 12:22:32.494	-0.12748645	-0.1274864499999988	9.83606995
2026-05-02 12:22:32.754	-0.1765197	-0.16671304999999878	9.85568325
2026-05-02 12:22:32.994	-0.18632635	-0.0784531999999988	9.85568325
2026-05-02 12:22:33.253	-0.12748645	-0.0784531999999988	9.83606995
2026-05-02 12:22:33.496	-0.1372931	-0.16671304999999878	9.8458766
2026-05-02 12:22:33.753	-0.1765197	-0.1078731499999988	9.83606995
2026-05-02 12:22:33.995	-0.1765197	-0.0882598499999988	9.8654899
2026-05-02 12:22:34.252	-0.1372931	-0.1372930999999988	9.8262633
2026-05-02 12:22:34.491	-0.14709975	-0.1470997499999988	9.8262633
2026-05-02 12:22:34.754	-0.18632635	-0.0784531999999988	9.85568325
2026-05-02 12:22:34.992	-0.14709975	-0.1176797999999988	9.8458766
2026-05-02 12:22:35.254	-0.14709975	-0.16671304999999878	9.83606995
2026-05-02 12:22:35.494	-0.16671305	-0.0784531999999988	9.8458766
2026-05-02 12:22:35.754	-0.1569064	-0.0980664999999988	9.83606995
2026-05-02 12:22:35.995	-0.1569064	-0.1569063999999988	9.83606995
2026-05-02 12:22:36.255	-0.1765197	-0.1176797999999988	9.8654899
2026-05-02 12:22:36.494	-0.1372931	-0.0686465499999988	9.81645665
2026-05-02 12:22:36.757	-0.14709975	-0.1274864499999988	9.8458766
2026-05-02 12:22:36.996	-0.196133	-0.17651969999999878	9.8458766
2026-05-02 12:22:37.256	-0.14709975	-0.0392265999999988	9.81645665
2026-05-02 12:22:37.494	-0.1176798	-0.1078731499999988	9.87529655
2026-05-02 12:22:37.755	-0.1765197	-0.20593964999999878	9.81645665
2026-05-02 12:22:37.995	-0.18632635	-0.0784531999999988	9.8654899
2026-05-02 12:22:38.254	-0.10787315	-0.0490332499999988	9.83606995
2026-05-02 12:22:38.494	-0.14709975	-0.16671304999999878	9.8262633
2026-05-02 12:22:38.754	-0.20593965	-0.16671304999999878	9.8851032
2026-05-02 12:22:38.995	-0.1372931	-0.0490332499999988	9.81645665
2026-05-02 12:22:39.253	-0.1176798	-0.1078731499999988	9.8262633
2026-05-02 12:22:39.492	-0.28439285000000003	-0.2647795499999988	9.81645665
2026-05-02 12:22:39.754	-0.26477955	-0.23535959999999878	9.93413645
2026-05-02 12:22:39.996	-0.10787315	-0.2843928499999988	9.79684335
2026-05-02 12:22:40.255	-0.0588399	-0.1863263499999988	9.7870367
2026-05-02 12:22:40.494	-0.2157463	-0.17651969999999878	9.87529655
2026-05-02 12:22:40.754	-0.28439285000000003	-0.24516624999999878	9.8654899
2026-05-02 12:22:40.995	-0.196133	-0.2059396499999988	9.80665
2026-05-02 12:22:41.260	-0.18632635	-0.1569063999999988	9.81645665
2026-05-02 12:22:41.494	-0.3138128	-0.1569063999999988	9.8654899
2026-05-02 12:22:41.754	-0.32361945000000003	-0.18632634999999878	9.83606995
2026-05-02 12:22:41.995	-0.2353596	-0.1470997499999988	9.8262633
2026-05-02 12:22:42.253	-0.2941995	-0.0882598499999988	9.8654899
2026-05-02 12:22:42.496	-0.32361945000000003	-0.029419949999998793	9.83606995
2026-05-02 12:22:42.754	-0.16671305	1.2117769675654117e-15	9.89490985
2026-05-02 12:22:42.995	-0.12748645	-0.0784531999999988	9.8262633
2026-05-02 12:22:43.256	-0.16671305	-0.0784531999999988	9.8262633
2026-05-02 12:22:43.495	-0.2353596	-0.0686465499999988	9.8654899
2026-05-02 12:22:43.754	-0.0980665	-0.1372930999999988	9.8654899
2026-05-02 12:22:43.996	0.08825985	-0.1078731499999988	9.81645665
2026-05-02 12:22:44.253	0.10787315	-0.1274864499999988	9.80665
2026-05-02 12:22:44.492	-0.00980665	-0.1372930999999988	9.8851032
2026-05-02 12:22:44.754	0.0196133	-0.16671304999999878	9.8654899
2026-05-02 12:22:44.994	0.10787315	-0.1569063999999988	9.81645665
2026-05-02 12:22:45.253	0.0588399	-0.0980664999999988	9.8458766
2026-05-02 12:22:45.494	-0.04903325	-0.1274864499999988	9.85568325
2026-05-02 12:22:45.755	-0.02941995	-0.1372930999999988	9.8851032
2026-05-02 12:22:45.993	0.06864655	-0.0980664999999988	9.7870367
2026-05-02 12:22:46.263	0.00980665	-0.1470997499999988	9.83606995
2026-05-02 12:22:46.494	-0.0784532	-0.11767979999999878	9.89490985
2026-05-02 12:22:46.754	-0.00980665	-0.1569063999999988	9.8262633
2026-05-02 12:22:46.996	-0.00980665	-0.1176797999999988	9.8458766
2026-05-02 12:22:47.251	-0.0588399	-0.1078731499999988	9.85568325
2026-05-02 12:22:47.495	-0.04903325	-0.0784531999999988	9.8458766
2026-05-02 12:22:47.754	-0.06864655	-0.16671304999999878	9.8458766
2026-05-02 12:22:47.995	-0.06864655	-0.1372930999999988	9.8262633
2026-05-02 12:22:48.254	-0.0980665	-0.05883989999999879	9.8654899
2026-05-02 12:22:48.495	-0.0784532	-0.17651969999999878	9.81645665
2026-05-02 12:22:48.754	-0.0784532	-0.1470997499999988	9.83606995
2026-05-02 12:22:48.994	-0.1176798	-0.1078731499999988	9.85568325
2026-05-02 12:22:49.254	-0.08825985	-0.1372930999999988	9.80665
2026-05-02 12:22:49.492	-0.12748645	-0.1176797999999988	9.8654899
2026-05-02 12:22:49.754	-0.0784532	-0.08825984999999878	9.91452315
2026-05-02 12:22:49.993	-0.04903325	-0.1569063999999988	9.73800345
2026-05-02 12:22:50.253	-0.1176798	-0.1078731499999988	9.85568325
2026-05-02 12:22:50.494	-0.14709975	-0.05883989999999878	9.9243298
2026-05-02 12:22:50.756	-0.12748645	-0.1372930999999988	9.7870367
2026-05-02 12:22:51.003	-0.08825985	-0.1470997499999988	9.83606995
2026-05-02 12:22:51.254	-0.22555295	-0.0882598499999988	9.8851032
2026-05-02 12:22:51.495	-0.0196133	-0.0784531999999988	9.8262633
2026-05-02 12:22:51.754	0.00980665	-0.1667130499999988	9.80665
2026-05-02 12:22:51.994	-0.14709975	-0.09806649999999878	9.9047165
2026-05-02 12:22:52.252	-0.14709975	-0.0882598499999988	9.8654899
2026-05-02 12:22:52.499	-0.02941995	-0.1470997499999988	9.7870367
2026-05-02 12:22:52.753	-0.12748645	-0.1176797999999988	9.87529655
2026-05-02 12:22:52.994	-0.24516625	-0.0490332499999988	9.8458766
2026-05-02 12:22:53.254	-0.1372931	-0.009806649999998796	9.8262633
2026-05-02 12:22:53.495	-0.1372931	-0.029419949999998793	9.8654899
2026-05-02 12:22:53.754	-0.2549729	-0.0588398999999988	9.83606995
2026-05-02 12:22:53.995	-0.30400615	-0.0882598499999988	9.8458766
2026-05-02 12:22:54.254	-0.3138128	-0.1274864499999988	9.8458766
2026-05-02 12:22:54.491	-0.2745862	-0.0980664999999988	9.8654899
2026-05-02 12:22:54.755	-0.20593965	-0.1274864499999988	9.80665
2026-05-02 12:22:54.992	-0.18632635	-0.1176797999999988	9.8458766
2026-05-02 12:22:55.255	-0.2157463	-0.0980664999999988	9.87529655
2026-05-02 12:22:55.493	-0.1569064	-0.0686465499999988	9.8262633
2026-05-02 12:22:55.755	-0.1569064	-0.1274864499999988	9.8262633
2026-05-02 12:22:55.994	-0.18632635	-0.1569063999999988	9.8262633
2026-05-02 12:22:56.254	-0.196133	-0.04903324999999879	9.87529655
2026-05-02 12:22:56.494	-0.1372931	-0.0882598499999988	9.8654899
2026-05-02 12:22:56.758	-0.1176798	-0.1667130499999988	9.7870367
2026-05-02 12:22:56.994	-0.1765197	-0.0784531999999988	9.8654899
2026-05-02 12:22:57.254	-0.1569064	-0.05883989999999879	9.85568325
2026-05-02 12:22:57.494	-0.16671305	-0.1274864499999988	9.8654899
2026-05-02 12:22:57.755	-0.0980665	-0.1372930999999988	9.83606995
2026-05-02 12:22:57.994	-0.12748645	-0.0882598499999988	9.83606995
2026-05-02 12:22:58.260	-0.18632635	-0.0784531999999988	9.8851032
2026-05-02 12:22:58.495	-0.10787315	-0.1765196999999988	9.79684335
2026-05-02 12:22:58.754	-0.10787315	-0.0882598499999988	9.8654899
2026-05-02 12:22:58.994	-0.08825985	-0.0686465499999988	9.85568325
2026-05-02 12:22:59.253	-0.0784532	-0.1470997499999988	9.81645665
2026-05-02 12:22:59.491	-0.0784532	-0.1176797999999988	9.85568325
2026-05-02 12:22:59.754	-0.08825985	-0.029419949999998793	9.83606995
2026-05-02 12:22:59.993	-0.06864655	-0.1274864499999988	9.85568325
2026-05-02 12:23:00.254	-0.08825985	-0.1372930999999988	9.8458766
2026-05-02 12:23:00.496	-0.08825985	-0.0980664999999988	9.8262633
2026-05-02 12:23:00.754	-0.0784532	-0.0980664999999988	9.87529655
2026-05-02 12:23:00.993	-0.0588399	-0.0980664999999988	9.8262633
2026-05-02 12:23:01.253	-0.0784532	-0.1372930999999988	9.87529655
2026-05-02 12:23:01.497	-0.04903325	-0.1274864499999988	9.81645665
2026-05-02 12:23:01.755	-0.0392266	-0.0686465499999988	9.81645665
2026-05-02 12:23:01.994	-0.06864655	-0.09806649999999878	9.91452315
2026-05-02 12:23:02.253	-0.0588399	-0.1667130499999988	9.79684335
2026-05-02 12:23:02.494	-0.06864655	-0.0784531999999988	9.8458766
2026-05-02 12:23:02.754	-0.0784532	-0.0784531999999988	9.8851032
2026-05-02 12:23:02.995	-0.0784532	-0.1569063999999988	9.7870367
2026-05-02 12:23:03.254	-0.10787315	-0.11767979999999878	9.9047165
2026-05-02 12:23:03.499	-0.04903325	-0.0882598499999988	9.80665
2026-05-02 12:23:03.752	-0.04903325	-0.1470997499999988	9.8458766
2026-05-02 12:23:03.992	-0.00980665	-0.1372930999999988	9.8262633
2026-05-02 12:23:04.256	-0.0784532	-0.0882598499999988	9.83606995
2026-05-02 12:23:04.492	-0.08825985	-0.0980664999999988	9.8851032
2026-05-02 12:23:04.753	-0.0392266	-0.1078731499999988	9.80665
2026-05-02 12:23:04.993	-0.06864655	-0.0882598499999988	9.8262633
2026-05-02 12:23:05.253	-0.12748645	-0.0686465499999988	9.8851032
2026-05-02 12:23:05.494	-0.0980665	-0.0980664999999988	9.80665
2026-05-02 12:23:05.751	-0.0588399	-0.0882598499999988	9.8458766
2026-05-02 12:23:05.995	-0.10787315	-0.0882598499999988	9.8458766
2026-05-02 12:23:06.253	-0.0784532	-0.0882598499999988	9.83606995
2026-05-02 12:23:06.495	-0.06864655	-0.0784531999999988	9.85568325
2026-05-02 12:23:06.757	-0.08825985	-0.0980664999999988	9.83606995
2026-05-02 12:23:06.994	-0.08825985	-0.0784531999999988	9.8458766
2026-05-02 12:23:07.253	-0.06864655	-0.0686465499999988	9.83606995
2026-05-02 12:23:07.498	-0.1176798	-0.0980664999999988	9.8654899
2026-05-02 12:23:07.754	-0.0980665	-0.1176797999999988	9.81645665
2026-05-02 12:23:07.994	-0.06864655	-0.0784531999999988	9.83606995
2026-05-02 12:23:08.254	-0.08825985	-0.04903324999999879	9.87529655
2026-05-02 12:23:08.494	-0.1176798	-0.1470997499999988	9.85568325
2026-05-02 12:23:08.752	-0.02941995	-0.1470997499999988	9.83606995
2026-05-02 12:23:08.992	-0.0784532	-0.0784531999999988	9.8262633
2026-05-02 12:23:09.260	-0.0784532	-0.08825984999999878	9.89490985
2026-05-02 12:23:09.492	-0.02941995	-0.1372930999999988	9.81645665
2026-05-02 12:23:09.754	-0.10787315	-0.0882598499999988	9.85568325
2026-05-02 12:23:09.992	-0.0980665	-0.0686465499999988	9.8654899
2026-05-02 12:23:10.256	-0.0784532	-0.1372930999999988	9.77723005
2026-05-02 12:23:10.492	-0.10787315	-0.1274864499999988	9.87529655
2026-05-02 12:23:10.751	-0.0980665	-0.03922659999999879	9.8458766
2026-05-02 12:23:10.996	-0.0980665	-0.1078731499999988	9.80665
2026-05-02 12:23:11.254	-0.12748645	-0.1569063999999988	9.87529655
2026-05-02 12:23:11.492	-0.10787315	-0.0588398999999988	9.8458766
2026-05-02 12:23:11.751	-0.0980665	-0.1078731499999988	9.81645665
2026-05-02 12:23:11.994	-0.1176798	-0.1078731499999988	9.87529655
2026-05-02 12:23:12.255	-0.0980665	-0.1176797999999988	9.80665
2026-05-02 12:23:12.495	-0.10787315	-0.1274864499999988	9.8851032
2026-05-02 12:23:12.753	-0.0980665	-0.0980664999999988	9.8262633
2026-05-02 12:23:12.994	-0.10787315	-0.1078731499999988	9.8458766
2026-05-02 12:23:13.265	-0.12748645	-0.1274864499999988	9.87529655
2026-05-02 12:23:13.499	-0.08825985	-0.1372930999999988	9.80665
2026-05-02 12:23:13.753	-0.0980665	-0.1372930999999988	9.8458766
2026-05-02 12:23:13.992	-0.1176798	-0.1176797999999988	9.8654899
2026-05-02 12:23:14.253	-0.10787315	-0.1569063999999988	9.81645665
2026-05-02 12:23:14.493	-0.08825985	-0.16671304999999878	9.8262633
2026-05-02 12:23:14.753	-0.1176798	-0.0882598499999988	9.8458766
2026-05-02 12:23:14.992	-0.1176798	-0.1372930999999988	9.85568325
2026-05-02 12:23:15.257	-0.10787315	-0.18632634999999878	9.83606995
2026-05-02 12:23:15.494	-0.12748645	-0.1569063999999988	9.8458766
2026-05-02 12:23:15.756	-0.0784532	-0.0784531999999988	9.8262633
2026-05-02 12:23:15.992	-0.0980665	-0.1569063999999988	9.8458766
2026-05-02 12:23:16.251	-0.12748645	-0.17651969999999878	9.8458766
2026-05-02 12:23:16.494	-0.0980665	-0.1274864499999988	9.87529655
2026-05-02 12:23:16.756	-0.0392266	-0.1863263499999988	9.79684335
2026-05-02 12:23:16.993	-0.04903325	-0.18632634999999878	9.85568325
2026-05-02 12:23:17.252	-0.04903325	-0.17651969999999878	9.85568325
2026-05-02 12:23:17.495	0.0	-0.1470997499999988	9.83606995
2026-05-02 12:23:17.752	-0.10787315	-0.17651969999999878	9.85568325
2026-05-02 12:23:17.997	-0.06864655	-0.17651969999999878	9.8458766
2026-05-02 12:23:18.251	-0.04903325	-0.20593964999999878	9.85568325
2026-05-02 12:23:18.493	-0.08825985	-0.22555294999999878	9.83606995
2026-05-02 12:23:18.754	-0.10787315	-0.21574629999999878	9.83606995
2026-05-02 12:23:18.992	-0.02941995	-0.2647795499999988	9.87529655
2026-05-02 12:23:19.257	-0.0196133	-0.22555294999999878	9.8262633
2026-05-02 12:23:19.491	0.08825985	-0.1470997499999988	9.8262633
2026-05-02 12:23:19.751	0.0392266	-0.19613299999999878	9.85568325
2026-05-02 12:23:19.993	0.0196133	-0.20593964999999878	9.8262633
2026-05-02 12:23:20.251	-0.0196133	-0.1569063999999988	9.85568325
2026-05-02 12:23:20.492	0.0	-0.1274864499999988	9.83606995
2026-05-02 12:23:20.751	-0.0196133	-0.1961329999999988	9.80665
2026-05-02 12:23:20.992	0.0	-0.18632634999999878	9.8654899
2026-05-02 12:23:21.251	0.0392266	-0.0980664999999988	9.81645665
2026-05-02 12:23:21.495	0.0588399	-0.1569063999999988	9.83606995
2026-05-02 12:23:21.752	0.00980665	-0.13729309999999878	9.9047165
2026-05-02 12:23:22.000	0.00980665	-0.1078731499999988	9.80665
2026-05-02 12:23:22.252	0.0	-0.1372930999999988	9.83606995
2026-05-02 12:23:22.492	-0.02941995	-0.1176797999999988	9.85568325
2026-05-02 12:23:22.752	-0.0588399	-0.0980664999999988	9.8654899
2026-05-02 12:23:22.994	-0.0392266	-0.1078731499999988	9.8458766
2026-05-02 12:23:23.251	-0.04903325	-0.1765196999999988	9.80665
2026-05-02 12:23:23.492	-0.1176798	-0.0882598499999988	9.87529655
2026-05-02 12:23:23.752	-0.04903325	-0.0980664999999988	9.8262633
2026-05-02 12:23:23.997	-0.10787315	-0.18632634999999878	9.8654899
2026-05-02 12:23:24.251	-0.20593965	-0.1569063999999988	9.85568325
2026-05-02 12:23:24.491	-0.22555295	-0.2059396499999988	9.7870367
2026-05-02 12:23:24.751	-0.02941995	-0.19613299999999878	9.8458766
2026-05-02 12:23:24.992	-0.1765197	-0.17651969999999878	9.87529655
2026-05-02 12:23:25.250	-0.44129925000000003	-0.3138127999999988	9.8262633
2026-05-02 12:23:25.491	-0.0196133	-0.21574629999999878	9.8458766
2026-05-02 12:23:25.753	0.00980665	-0.0784531999999988	9.8262633
2026-05-02 12:23:25.994	-0.0196133	-0.2647795499999988	9.81645665
2026-05-02 12:23:26.252	-0.28439285000000003	-0.24516624999999878	9.87529655
2026-05-02 12:23:26.491	-0.36284605000000003	-0.24516624999999878	9.8654899
2026-05-02 12:23:26.751	0.2745862	-0.1961329999999988	9.7870367
2026-05-02 12:23:26.992	-0.51975245	-0.1470997499999988	9.8654899
2026-05-02 12:23:27.250	0.1176798	-0.22555294999999878	9.85568325
2026-05-02 12:23:27.494	0.02941995	-0.0882598499999988	9.8654899
2026-05-02 12:23:27.751	-0.14709975	-0.0588398999999988	9.80665
2026-05-02 12:23:27.992	-0.20593965	-0.04903324999999879	9.91452315
2026-05-02 12:23:28.253	0.0392266	-0.07845319999999881	9.77723005
2026-05-02 12:23:28.494	0.0588399	0.08825985000000121	9.87529655
2026-05-02 12:23:28.752	0.0	-0.029419949999998793	9.85568325
2026-05-02 12:23:28.995	0.2745862	0.009806650000001204	9.83606995
2026-05-02 12:23:29.252	0.1372931	-0.12748644999999878	9.89490985
2026-05-02 12:23:29.491	0.46091255	-0.0980664999999988	9.8262633
2026-05-02 12:23:29.752	0.24516625	-0.0686465499999988	9.8458766
2026-05-02 12:23:29.992	0.46091255	-0.0784531999999988	9.79684335
2026-05-02 12:23:30.253	0.14709975	-0.1274864499999988	9.87529655
2026-05-02 12:23:30.492	0.7256921000000001	-0.1176797999999988	9.83606995
2026-05-02 12:23:30.751	-0.04903325	-0.1274864499999988	9.8458766
2026-05-02 12:23:30.994	0.5687857000000001	-0.1569063999999988	9.79684335
2026-05-02 12:23:31.251	0.06864655	-0.0980664999999988	9.85568325
2026-05-02 12:23:31.494	0.73549875	-0.009806649999998798	9.81645665
2026-05-02 12:23:31.754	0.20593965	-0.05883989999999879	9.89490985
2026-05-02 12:23:31.994	0.7649187	-0.1078731499999988	9.75761675
2026-05-02 12:23:32.254	0.2549729	-0.009806649999998788	9.9047165
2026-05-02 12:23:32.494	0.65704555	0.01961330000000119	9.69877685
2026-05-02 12:23:32.753	0.36284605000000003	-0.10787314999999878	9.91452315
2026-05-02 12:23:32.996	0.0	-0.0784531999999988	9.8654899
2026-05-02 12:23:33.250	0.77472535	-0.029419949999998803	9.7870367
2026-05-02 12:23:33.493	0.20593965	-0.019613299999998796	9.8262633
2026-05-02 12:23:33.754	0.6276256	-0.03922659999999879	9.89490985
2026-05-02 12:23:33.993	0.30400615	-0.1176797999999988	9.7870367
2026-05-02 12:23:34.253	0.980665	0.03922660000000121	9.8654899
2026-05-02 12:23:34.491	-0.06864655	-0.1569063999999988	9.8851032
2026-05-02 12:23:34.753	0.65704555	-0.0882598499999988	9.79684335
2026-05-02 12:23:34.992	0.30400615	-0.019613299999998793	9.8458766
2026-05-02 12:23:35.260	1.04931155	-0.06864654999999881	9.71839015
2026-05-02 12:23:35.496	0.4314926	-0.16671304999999878	9.91452315
2026-05-02 12:23:35.754	0.7060788	0.019613300000001197	9.7870367
2026-05-02 12:23:35.992	0.71588545	-0.029419949999998803	9.7674234
2026-05-02 12:23:36.260	0.32361945000000003	-0.18632634999999878	9.91452315
2026-05-02 12:23:36.493	0.85317855	-0.019613299999998814	9.69877685
2026-05-02 12:23:36.753	0.32361945000000003	1.2165808405785551e-15	9.93413645
2026-05-02 12:23:36.996	0.1765197	-0.0588398999999988	9.81645665
2026-05-02 12:23:37.253	0.44129925000000003	-0.0196132999999988	9.81645665
2026-05-02 12:23:37.495	0.87279185	0.06864655000000121	9.81645665
2026-05-02 12:23:37.757	0.69627215	-0.009806649999998798	9.81645665
2026-05-02 12:23:37.994	0.63743225	-0.0490332499999988	9.83606995
2026-05-02 12:23:38.250	0.0392266	1.2069730945522684e-15	9.85568325
2026-05-02 12:23:38.492	0.36284605000000003	-0.029419949999998793	9.83606995
2026-05-02 12:23:38.750	0.55897905	-0.1372930999999988	9.83606995
2026-05-02 12:23:38.995	1.08853815	0.1274864500000012	9.8654899
2026-05-02 12:23:39.258	0.57859235	0.0490332500000012	9.8262633
2026-05-02 12:23:39.492	0.3530394	-0.1372930999999988	9.80665
2026-05-02 12:23:39.753	0.3334261	-0.0392265999999988	9.81645665
2026-05-02 12:23:39.994	0.2941995	0.06864655000000121	9.8458766
2026-05-02 12:23:40.253	0.65704555	-0.1176797999999988	9.8654899
2026-05-02 12:23:40.493	0.42168595	-0.0392265999999988	9.77723005
2026-05-02 12:23:40.757	0.4707192	0.11767980000000121	9.80665
2026-05-02 12:23:40.995	0.392266	0.019613300000001208	9.8458766
2026-05-02 12:23:41.254	0.00980665	-0.0588398999999988	9.8458766
2026-05-02 12:23:41.498	0.22555295	0.019613300000001208	9.8654899
2026-05-02 12:23:41.753	0.34323275	1.188958570752981e-15	9.7085835
2026-05-02 12:23:41.993	0.30400615	-0.07845319999999878	9.95374975
2026-05-02 12:23:42.263	0.4511059	-0.009806649999998794	9.8458766
2026-05-02 12:23:42.494	0.1176798	-0.0098066499999988	9.80665
2026-05-02 12:23:42.752	0.0980665	-0.009806649999998791	9.87529655
2026-05-02 12:23:42.994	0.4903325	-0.029419949999998803	9.79684335
2026-05-02 12:23:43.262	0.6276256	0.019613300000001214	9.91452315
2026-05-02 12:23:43.493	0.26477955	-0.019613299999998803	9.7674234
2026-05-02 12:23:43.751	0.46091255	-0.01961329999999879	9.8851032
2026-05-02 12:23:43.992	0.57859235	-0.0882598499999988	9.85568325
2026-05-02 12:23:44.253	0.5491724	-0.0882598499999988	9.80665
2026-05-02 12:23:44.491	0.12748645	-0.05883989999999878	9.95374975
2026-05-02 12:23:44.753	0.4707192	-0.019613299999998817	9.67916355
2026-05-02 12:23:44.991	0.44129925000000003	-0.05883989999999878	9.95374975
2026-05-02 12:23:45.255	0.5295591	-0.009806649999998803	9.77723005
2026-05-02 12:23:45.493	-0.00980665	-0.05883989999999879	9.89490985
2026-05-02 12:23:45.753	0.5687857000000001	-0.009806649999998808	9.73800345
2026-05-02 12:23:45.994	0.44129925000000003	-0.1176797999999988	9.8654899
2026-05-02 12:23:46.253	0.0588399	-0.0490332499999988	9.80665
2026-05-02 12:23:46.493	0.2157463	-0.009806649999998796	9.8262633
2026-05-02 12:23:46.754	-0.0784532	-0.10787314999999878	9.9047165
2026-05-02 12:23:46.993	0.2941995	-0.0980664999999988	9.7674234
2026-05-02 12:23:47.254	-0.06864655	1.2141789040719834e-15	9.91452315
2026-05-02 12:23:47.493	0.4118793	0.019613300000001197	9.7870367
2026-05-02 12:23:47.756	0.46091255	-0.13729309999999878	9.89490985
2026-05-02 12:23:47.994	0.34323275	-0.0686465499999988	9.8458766
2026-05-02 12:23:48.254	0.0588399	0.009806650000001206	9.8458766
2026-05-02 12:23:48.493	-0.10787315	-0.05883989999999879	9.85568325
2026-05-02 12:23:48.754	0.1765197	-0.1372930999999988	9.8458766
2026-05-02 12:23:48.993	0.4903325	-0.05883989999999879	9.8654899
2026-05-02 12:23:49.251	0.42168595	1.2057721262989826e-15	9.8458766
2026-05-02 12:23:49.496	0.0	-0.1274864499999988	9.83606995
2026-05-02 12:23:49.754	0.0392266	-0.0784531999999988	9.80665
2026-05-02 12:23:49.991	0.2745862	-0.029419949999998782	9.9439431
2026-05-02 12:23:50.255	0.32361945000000003	-0.1274864499999988	9.7674234
2026-05-02 12:23:50.494	-0.00980665	-0.16671304999999878	9.87529655
2026-05-02 12:23:50.753	0.0196133	-0.019613299999998793	9.8654899
2026-05-02 12:23:50.994	0.2353596	-0.06864654999999881	9.7674234
2026-05-02 12:23:51.253	0.28439285000000003	-0.18632634999999878	9.9243298
2026-05-02 12:23:51.494	0.18632635	0.049033250000001194	9.75761675
2026-05-02 12:23:51.753	-0.00980665	-0.00980664999999879	9.8851032
2026-05-02 12:23:51.993	0.06864655	-0.1372930999999988	9.83606995
2026-05-02 12:23:52.257	0.1569064	-0.009806649999998796	9.83606995
2026-05-02 12:23:52.491	-0.0392266	-0.0882598499999988	9.85568325
2026-05-02 12:23:52.754	-0.12748645	1.2081740628055542e-15	9.8654899
2026-05-02 12:23:52.995	0.0980665	-0.029419949999998803	9.7674234
2026-05-02 12:23:53.253	0.1569064	-0.21574629999999878	9.9439431
2026-05-02 12:23:53.494	0.1176798	-0.06864654999999881	9.73800345
2026-05-02 12:23:53.755	0.0	-0.009806649999998788	9.9047165
2026-05-02 12:23:53.993	0.0392266	-0.17651969999999878	9.8654899
2026-05-02 12:23:54.253	0.10787315	-0.04903324999999881	9.73800345
2026-05-02 12:23:54.491	-0.08825985	-0.029419949999998786	9.93413645
2026-05-02 12:23:54.753	0.02941995	-0.18632634999999878	9.89490985
2026-05-02 12:23:54.993	0.0784532	-0.07845319999999881	9.7085835
2026-05-02 12:23:55.254	0.0980665	-0.02941994999999879	9.87529655
2026-05-02 12:23:55.494	0.04903325	-0.0980664999999988	9.85568325
2026-05-02 12:23:55.753	-0.0196133	-0.23535959999999878	9.83606995
2026-05-02 12:23:56.002	0.0196133	-0.0882598499999988	9.8851032
2026-05-02 12:23:56.252	0.0196133	0.029419950000001197	9.79684335
2026-05-02 12:23:56.493	0.26477955	-0.4118792999999987	9.99297635
2026-05-02 12:23:56.754	-0.02941995	0.02941995000000118	9.639936950000001
2026-05-02 12:23:56.993	-0.10787315	-0.11767979999999878	9.9635564
2026-05-02 12:23:57.253	-0.08825985	-0.1863263499999988	9.7870367
2026-05-02 12:23:57.493	-0.0588399	-0.0882598499999988	9.87529655
2026-05-02 12:23:57.761	-0.08825985	-0.0784531999999988	9.89490985
2026-05-02 12:23:58.000	-0.08825985	-0.1863263499999988	9.7674234
2026-05-02 12:23:58.253	-0.10787315	-0.04903324999999878	9.9243298
2026-05-02 12:23:58.493	-0.196133	-0.1176797999999988	9.81645665
2026-05-02 12:23:58.753	-0.2353596	-0.17651969999999878	9.8458766
2026-05-02 12:23:58.994	-0.24516625	-0.0490332499999988	9.8458766
2026-05-02 12:23:59.252	-0.16671305	0.019613300000001197	9.77723005
2026-05-02 12:23:59.491	-0.22555295	-0.12748644999999878	9.9047165
2026-05-02 12:23:59.754	-0.20593965	-0.1274864499999988	9.80665
2026-05-02 12:23:59.994	-0.18632635	-0.05883989999999879	9.85568325
2026-05-02 12:24:00.251	-0.18632635	-0.029419949999998793	9.8458766
2026-05-02 12:24:00.493	-0.20593965	-0.21574629999999878	9.81645665
2026-05-02 12:24:00.755	-0.196133	-0.0784531999999988	9.85568325
2026-05-02 12:24:00.998	-0.12748645	-0.0098066499999988	9.80665
2026-05-02 12:24:01.254	-0.14709975	-0.17651969999999878	9.87529655
2026-05-02 12:24:01.493	-0.10787315	-0.1372930999999988	9.8654899
2026-05-02 12:24:01.753	-0.08825985	-0.0784531999999988	9.80665
2026-05-02 12:24:01.994	-0.0784532	-0.0784531999999988	9.81645665
2026-05-02 12:24:02.255	-0.1569064	-0.18632634999999878	9.9047165
2026-05-02 12:24:02.493	-0.1372931	-0.17651969999999878	9.85568325
2026-05-02 12:24:02.752	-0.0392266	-0.0490332499999988	9.79684335
2026-05-02 12:24:02.994	-0.10787315	-0.1470997499999988	9.77723005
2026-05-02 12:24:03.258	-0.1372931	-0.18632634999999878	9.85568325
2026-05-02 12:24:03.493	-0.18632635	-0.1470997499999988	9.87529655
2026-05-02 12:24:03.753	-0.1176798	-0.0490332499999988	9.79684335
2026-05-02 12:24:03.991	-0.0980665	-0.1569063999999988	9.8654899
2026-05-02 12:24:04.253	-0.1176798	-0.1470997499999988	9.81645665
2026-05-02 12:24:04.491	-0.196133	-0.1470997499999988	9.87529655
2026-05-02 12:24:04.754	-0.14709975	-0.0784531999999988	9.8654899
2026-05-02 12:24:04.990	-0.06864655	-0.1176797999999988	9.75761675
2026-05-02 12:24:05.255	-0.1372931	-0.11767979999999878	9.91452315
2026-05-02 12:24:05.494	-0.1569064	-0.1176797999999988	9.83606995
2026-05-02 12:24:05.754	-0.1372931	-0.1078731499999988	9.8262633
2026-05-02 12:24:05.993	-0.08825985	-0.1176797999999988	9.8458766
2026-05-02 12:24:06.253	-0.12748645	-0.1176797999999988	9.7674234
2026-05-02 12:24:06.494	-0.16671305	-0.14709974999999878	9.9047165
2026-05-02 12:24:06.754	-0.22555295	-0.1274864499999988	9.87529655
2026-05-02 12:24:06.998	-0.0784532	-0.1372930999999988	9.77723005
2026-05-02 12:24:07.254	-0.0588399	-0.03922659999999879	9.8458766
2026-05-02 12:24:07.494	-0.24516625	-0.19613299999999878	9.89490985
2026-05-02 12:24:07.754	-0.08825985	-0.1176797999999988	9.81645665
2026-05-02 12:24:07.993	-0.0784532	-0.0784531999999988	9.79684335
2026-05-02 12:24:08.252	-0.196133	-0.0882598499999988	9.8654899
2026-05-02 12:24:08.491	-0.12748645	-0.1569063999999988	9.8654899
2026-05-02 12:24:08.751	-0.0784532	-0.0980664999999988	9.81645665
2026-05-02 12:24:08.994	-0.1765197	-0.0882598499999988	9.85568325
2026-05-02 12:24:09.254	-0.1569064	-0.1470997499999988	9.85568325
2026-05-02 12:24:09.492	-0.1372931	-0.0980664999999988	9.8262633
2026-05-02 12:24:09.754	-0.1372931	-0.1078731499999988	9.8654899
2026-05-02 12:24:09.990	-0.0784532	-0.0882598499999988	9.8262633
2026-05-02 12:24:10.256	-0.1372931	-0.1078731499999988	9.83606995
2026-05-02 12:24:10.493	-0.20593965	-0.16671304999999878	9.87529655
2026-05-02 12:24:10.760	-0.1176798	-0.0588398999999988	9.81645665
2026-05-02 12:24:10.993	-0.0588399	-0.1274864499999988	9.85568325
2026-05-02 12:24:11.254	-0.10787315	-0.17651969999999878	9.8262633
2026-05-02 12:24:11.493	-0.1765197	-0.0784531999999988	9.83606995
2026-05-02 12:24:11.752	-0.1176798	-0.20593964999999878	9.83606995
2026-05-02 12:24:11.993	-0.08825985	-0.1569063999999988	9.8458766
2026-05-02 12:24:12.254	-0.1176798	-0.0882598499999988	9.80665
2026-05-02 12:24:12.493	-0.0980665	-0.1569063999999988	9.80665
2026-05-02 12:24:12.753	-0.1176798	-0.13729309999999878	9.9243298
2026-05-02 12:24:13.002	-0.0392266	-0.1470997499999988	9.73800345
2026-05-02 12:24:13.254	-0.1372931	-0.14709974999999878	9.9047165
2026-05-02 12:24:13.493	-0.1176798	-0.1372930999999988	9.85568325
2026-05-02 12:24:13.754	-0.0784532	-0.1863263499999988	9.73800345
2026-05-02 12:24:13.993	-0.0784532	-0.15690639999999878	9.97336305
2026-05-02 12:24:14.253	-0.10787315	-0.1078731499999988	9.79684335
2026-05-02 12:24:14.491	-0.0784532	-0.17651969999999878	9.89490985
2026-05-02 12:24:14.755	-0.0392266	-0.1274864499999988	9.8851032
2026-05-02 12:24:14.992	-0.1569064	-0.1470997499999988	9.80665
2026-05-02 12:24:15.259	-0.1569064	-0.10787314999999878	9.9047165
2026-05-02 12:24:15.493	-0.06864655	-0.1765196999999988	9.7870367
2026-05-02 12:24:15.754	-0.08825985	-0.17651969999999878	9.83606995
2026-05-02 12:24:15.993	-0.1569064	-0.04903324999999879	9.8851032
2026-05-02 12:24:16.259	-0.12748645	-0.18632634999999878	9.83606995
2026-05-02 12:24:16.495	-0.12748645	-0.20593964999999878	9.8458766
2026-05-02 12:24:16.753	-0.14709975	-0.0784531999999988	9.87529655
2026-05-02 12:24:16.993	-0.0980665	-0.1274864499999988	9.75761675
2026-05-02 12:24:17.253	-0.18632635	-0.17651969999999878	9.87529655
2026-05-02 12:24:17.491	-0.14709975	-0.1470997499999988	9.8654899
2026-05-02 12:24:17.754	-0.12748645	-0.0980664999999988	9.83606995
2026-05-02 12:24:17.994	-0.1569064	-0.0980664999999988	9.8654899
2026-05-02 12:24:18.265	-0.1569064	-0.2451662499999988	9.77723005
2026-05-02 12:24:18.494	-0.1569064	-0.0882598499999988	9.8458766
2026-05-02 12:24:18.753	-0.14709975	-0.0686465499999988	9.9047165
2026-05-02 12:24:18.993	-0.08825985	-0.1470997499999988	9.83606995
2026-05-02 12:24:19.253	-0.14709975	-0.1765196999999988	9.7870367
2026-05-02 12:24:19.495	-0.18632635	-0.04903324999999879	9.8654899
2026-05-02 12:24:19.758	-0.1765197	-0.09806649999999878	9.89490985
2026-05-02 12:24:19.991	-0.10787315	-0.17651969999999878	9.8262633
2026-05-02 12:24:20.253	-0.16671305	-0.1078731499999988	9.79684335
2026-05-02 12:24:20.493	-0.196133	-0.0784531999999988	9.89490985
2026-05-02 12:24:20.754	-0.14709975	-0.1176797999999988	9.87529655
2026-05-02 12:24:20.993	-0.08825985	-0.1372930999999988	9.8262633
2026-05-02 12:24:21.253	-0.12748645	-0.0784531999999988	9.81645665
2026-05-02 12:24:21.494	-0.26477955	-0.13729309999999878	9.9243298
2026-05-02 12:24:21.754	-0.08825985	-0.1176797999999988	9.80665
2026-05-02 12:24:21.998	-0.0784532	-0.07845319999999881	9.77723005
2026-05-02 12:24:22.253	-0.22555295	-0.12748644999999878	9.9047165
2026-05-02 12:24:22.494	-0.18632635	-0.1765196999999988	9.79684335
2026-05-02 12:24:22.753	-0.0980665	-0.0980664999999988	9.83606995
2026-05-02 12:24:22.993	-0.12748645	-0.1176797999999988	9.85568325
2026-05-02 12:24:23.254	-0.1176798	-0.0882598499999988	9.7674234
2026-05-02 12:24:23.494	-0.20593965	-0.13729309999999878	9.9831697
2026-05-02 12:24:23.753	-0.0784532	-0.1863263499999988	9.73800345
2026-05-02 12:24:23.994	-0.1176798	-0.019613299999998786	9.9243298
2026-05-02 12:24:24.254	-0.1176798	-0.18632634999999878	9.81645665
2026-05-02 12:24:24.491	-0.18632635	-0.0784531999999988	9.85568325
2026-05-02 12:24:24.753	-0.20593965	-0.14709974999999878	9.91452315
2026-05-02 12:24:24.991	-0.04903325	-0.1372930999999988	9.71839015
2026-05-02 12:24:25.253	-0.14709975	-0.019613299999998786	9.9047165
2026-05-02 12:24:25.495	-0.22555295	-0.18632634999999878	9.91452315
2026-05-02 12:24:25.755	-0.08825985	-0.11767979999999882	9.7281968
2026-05-02 12:24:25.991	-0.04903325	-0.0686465499999988	9.89490985
2026-05-02 12:24:26.258	-0.12748645	-0.09806649999999878	9.9047165
2026-05-02 12:24:26.493	-0.18632635	-0.1470997499999988	9.7674234
2026-05-02 12:24:26.753	-0.14709975	-0.11767979999999878	9.9439431
2026-05-02 12:24:26.993	-0.0588399	-0.08825984999999882	9.67916355
2026-05-02 12:24:27.253	-0.1372931	-0.07845319999999878	9.9243298
2026-05-02 12:24:27.493	-0.1176798	-0.1470997499999988	9.87529655
2026-05-02 12:24:27.754	-0.02941995	-0.1667130499999988	9.7281968
2026-05-02 12:24:27.994	-0.1176798	-0.019613299999998782	9.9439431
2026-05-02 12:24:28.253	-0.12748645	-0.19613299999999878	9.81645665
2026-05-02 12:24:28.492	-0.1176798	-0.1274864499999988	9.8458766
2026-05-02 12:24:28.753	-0.12748645	-0.05883989999999879	9.9047165
2026-05-02 12:24:28.995	-0.06864655	-0.1765196999999988	9.71839015
2026-05-02 12:24:29.261	-0.0980665	-0.08825984999999878	9.9047165
2026-05-02 12:24:29.493	-0.14709975	-0.0882598499999988	9.85568325
2026-05-02 12:24:29.754	-0.08825985	-0.1176797999999988	9.81645665
2026-05-02 12:24:29.990	-0.0588399	-0.1274864499999988	9.80665
2026-05-02 12:24:30.253	-0.20593965	-0.1078731499999988	9.83606995
2026-05-02 12:24:30.493	-0.14709975	-0.11767979999999878	9.89490985
2026-05-02 12:24:30.755	-0.0392266	-0.1176797999999988	9.79684335
2026-05-02 12:24:30.993	-0.1176798	-0.1372930999999988	9.80665
2026-05-02 12:24:31.258	-0.20593965	-0.03922659999999878	9.95374975
2026-05-02 12:24:31.494	-0.08825985	-0.1765196999999988	9.77723005
2026-05-02 12:24:31.754	-0.08825985	-0.1765196999999988	9.7674234
2026-05-02 12:24:31.991	-0.20593965	-0.029419949999998782	9.95374975
2026-05-02 12:24:32.250	-0.10787315	-0.1765196999999988	9.7674234
2026-05-02 12:24:32.499	-0.08825985	-0.0784531999999988	9.89490985
2026-05-02 12:24:32.753	-0.0784532	-0.1078731499999988	9.8262633
2026-05-02 12:24:32.993	-0.1372931	-0.1372930999999988	9.85568325
2026-05-02 12:24:33.254	-0.10787315	-0.09806649999999878	9.9439431
2026-05-02 12:24:33.494	-0.0588399	-0.06864654999999881	9.71839015
2026-05-02 12:24:33.753	-0.14709975	-0.23535959999999878	9.9047165
2026-05-02 12:24:33.993	-0.1176798	-0.0686465499999988	9.8458766
2026-05-02 12:24:34.252	-0.0784532	-0.0686465499999988	9.80665
2026-05-02 12:24:34.490	-0.08825985	-0.1569063999999988	9.8851032
2026-05-02 12:24:34.753	-0.1176798	-0.1765196999999988	9.80665
2026-05-02 12:24:34.991	-0.0980665	-0.029419949999998793	9.8654899
2026-05-02 12:24:35.252	-0.1176798	-0.1274864499999988	9.8262633
2026-05-02 12:24:35.490	-0.10787315	-0.1372930999999988	9.79684335
2026-05-02 12:24:35.754	-0.1372931	-0.16671304999999878	9.9243298
2026-05-02 12:24:35.993	0.0	-0.019613299999998807	9.7478101
2026-05-02 12:24:36.252	-0.14709975	-0.21574629999999878	9.93413645
2026-05-02 12:24:36.493	-0.0980665	-0.07845319999999881	9.7674234
2026-05-02 12:24:36.756	-0.1176798	-0.1078731499999988	9.8654899
2026-05-02 12:24:36.993	-0.10787315	-0.1372930999999988	9.8654899
2026-05-02 12:24:37.250	-0.1372931	-0.1274864499999988	9.83606995
2026-05-02 12:24:37.494	-0.1176798	-0.1078731499999988	9.7870367
2026-05-02 12:24:37.760	-0.16671305	-0.09806649999999878	9.89490985
2026-05-02 12:24:37.998	-0.14709975	-0.1078731499999988	9.83606995
2026-05-02 12:24:38.252	-0.0980665	-0.1765196999999988	9.80665
2026-05-02 12:24:38.493	-0.18632635	-0.05883989999999879	9.8851032
2026-05-02 12:24:38.754	-0.16671305	-0.1176797999999988	9.8262633
2026-05-02 12:24:38.994	-0.0980665	-0.1470997499999988	9.85568325
2026-05-02 12:24:39.254	-0.12748645	-0.1470997499999988	9.8458766
2026-05-02 12:24:39.491	-0.12748645	-0.0686465499999988	9.85568325
2026-05-02 12:24:39.754	-0.1569064	-0.1274864499999988	9.8654899
2026-05-02 12:24:39.990	-0.0784532	-0.1569063999999988	9.85568325
2026-05-02 12:24:40.252	-0.12748645	-0.1176797999999988	9.85568325
2026-05-02 12:24:40.493	-0.1372931	-0.0784531999999988	9.85568325
2026-05-02 12:24:40.754	-0.0784532	-0.16671304999999878	9.81645665
2026-05-02 12:24:40.993	-0.16671305	-0.12748644999999878	9.91452315
2026-05-02 12:24:41.253	-0.0980665	-0.0784531999999988	9.80665
2026-05-02 12:24:41.494	-0.08825985	-0.1470997499999988	9.8654899
2026-05-02 12:24:41.752	-0.16671305	-0.1274864499999988	9.8654899
2026-05-02 12:24:41.995	-0.12748645	-0.0686465499999988	9.83606995
2026-05-02 12:24:42.253	-0.10787315	-0.1470997499999988	9.83606995
2026-05-02 12:24:42.493	-0.1569064	-0.14709974999999878	9.89490985
2026-05-02 12:24:42.754	-0.1176798	-0.0392265999999988	9.81645665
2026-05-02 12:24:42.994	-0.0784532	-0.1372930999999988	9.81645665
2026-05-02 12:24:43.251	-0.1569064	-0.1470997499999988	9.87529655
2026-05-02 12:24:43.492	-0.1765197	-0.0980664999999988	9.8654899
2026-05-02 12:24:43.756	-0.08825985	-0.1176797999999988	9.80665
2026-05-02 12:24:43.990	-0.1372931	-0.1470997499999988	9.85568325
2026-05-02 12:24:44.254	-0.1176798	-0.0784531999999988	9.89490985
2026-05-02 12:24:44.493	-0.06864655	-0.16671304999999878	9.8262633
2026-05-02 12:24:44.753	-0.1176798	-0.0882598499999988	9.81645665
2026-05-02 12:24:44.991	-0.12748645	-0.1274864499999988	9.8851032
2026-05-02 12:24:45.253	-0.0784532	-0.1274864499999988	9.8262633
2026-05-02 12:24:45.494	-0.10787315	-0.16671304999999878	9.85568325
2026-05-02 12:24:45.753	-0.12748645	-0.1078731499999988	9.8654899
2026-05-02 12:24:45.994	-0.0784532	-0.0980664999999988	9.77723005
2026-05-02 12:24:46.259	-0.12748645	-0.1372930999999988	9.8851032
2026-05-02 12:24:46.493	-0.14709975	-0.1569063999999988	9.85568325
2026-05-02 12:24:46.753	-0.1176798	-0.0980664999999988	9.75761675
2026-05-02 12:24:46.994	-0.0980665	-0.13729309999999878	9.89490985
2026-05-02 12:24:47.252	-0.12748645	-0.1078731499999988	9.81645665
2026-05-02 12:24:47.492	-0.1176798	-0.1078731499999988	9.85568325
2026-05-02 12:24:47.757	-0.18632635	-0.1765196999999988	9.80665
2026-05-02 12:24:47.993	-0.1372931	-0.1274864499999988	9.87529655
2026-05-02 12:24:48.254	-0.16671305	-0.0392265999999988	9.80665
2026-05-02 12:24:48.493	-0.26477955	-0.20593964999999878	9.8851032
2026-05-02 12:24:48.754	-0.2157463	-0.1078731499999988	9.8851032
2026-05-02 12:24:48.993	-0.00980665	-0.029419949999998807	9.7478101
2026-05-02 12:24:49.252	-0.10787315	-0.1176797999999988	9.85568325
2026-05-02 12:24:49.491	-0.22555295	-0.12748644999999878	9.89490985
2026-05-02 12:24:49.753	-0.16671305	-0.0980664999999988	9.80665
2026-05-02 12:24:49.990	-0.0784532	-0.0588398999999988	9.83606995
2026-05-02 12:24:50.253	-0.0784532	-0.07845319999999881	9.77723005
2026-05-02 12:24:50.498	-0.2549729	-0.20593964999999878	9.9047165
2026-05-02 12:24:50.753	-0.10787315	-0.11767979999999878	9.89490985
2026-05-02 12:24:50.993	0.06864655	-0.039226599999998814	9.69877685
2026-05-02 12:24:51.254	-0.0588399	-0.24516624999999878	9.9243298
2026-05-02 12:24:51.493	-0.1176798	-0.1176797999999988	9.85568325
2026-05-02 12:24:51.752	-0.0196133	-0.04903324999999881	9.77723005
2026-05-02 12:24:51.993	-0.04903325	-0.24516624999999878	9.8458766
2026-05-02 12:24:52.253	-0.08825985	-0.1569063999999988	9.8262633
2026-05-02 12:24:52.493	-0.0784532	-0.1372930999999988	9.87529655
2026-05-02 12:24:52.754	-0.02941995	-0.1569063999999988	9.80665
2026-05-02 12:24:52.994	-0.06864655	-0.19613299999999878	9.83606995
2026-05-02 12:24:53.254	-0.12748645	-0.1176797999999988	9.87529655
2026-05-02 12:24:53.494	-0.0196133	-0.20593964999999878	9.83606995
2026-05-02 12:24:53.753	-0.04903325	-0.1569063999999988	9.80665
2026-05-02 12:24:53.993	-0.196133	-0.1470997499999988	9.8654899
2026-05-02 12:24:54.253	-0.0980665	-0.16671304999999878	9.8458766
2026-05-02 12:24:54.493	-0.2941995	-0.1470997499999988	9.85568325
2026-05-02 12:24:54.754	-0.2353596	-0.16671304999999878	9.8654899
2026-05-02 12:24:54.998	-0.2941995	-0.0588398999999988	9.81645665
2026-05-02 12:24:55.252	-0.196133	-0.1176797999999988	9.79684335
2026-05-02 12:24:55.492	-0.2353596	-0.16671304999999878	9.87529655
2026-05-02 12:24:55.754	-0.10787315	-0.1078731499999988	9.8654899
2026-05-02 12:24:55.993	-0.0980665	-0.0686465499999988	9.83606995
2026-05-02 12:24:56.253	-0.0588399	-0.18632634999999878	9.85568325
2026-05-02 12:24:56.493	-0.0392266	-0.1372930999999988	9.77723005
2026-05-02 12:24:56.753	-0.06864655	-0.029419949999998786	9.93413645
2026-05-02 12:24:56.993	-0.0392266	-0.16671304999999878	9.8458766
2026-05-02 12:24:57.254	-0.06864655	-0.1274864499999988	9.7674234
2026-05-02 12:24:57.493	-0.1176798	-0.03922659999999879	9.89490985
2026-05-02 12:24:57.752	-0.08825985	-0.1569063999999988	9.80665
2026-05-02 12:24:57.992	-0.04903325	-0.1176797999999988	9.8262633
2026-05-02 12:24:58.264	-0.06864655	-0.0980664999999988	9.8262633
2026-05-02 12:24:58.497	-0.0980665	-0.04903324999999879	9.8851032
2026-05-02 12:24:58.750	-0.04903325	-0.1274864499999988	9.8262633
2026-05-02 12:24:58.993	-0.0392266	-0.1274864499999988	9.83606995
2026-05-02 12:24:59.253	-0.0196133	-0.0686465499999988	9.8851032
2026-05-02 12:24:59.493	-0.0588399	-0.0588398999999988	9.81645665
2026-05-02 12:24:59.750	-0.0588399	-0.1470997499999988	9.83606995
2026-05-02 12:24:59.994	-0.1176798	-0.1372930999999988	9.87529655
2026-05-02 12:25:00.252	-0.0392266	1.202169221539125e-15	9.81645665
2026-05-02 12:25:00.492	-0.04903325	-0.0980664999999988	9.85568325
2026-05-02 12:25:00.753	-0.0980665	-0.1470997499999988	9.8262633
2026-05-02 12:25:00.995	-0.0980665	-0.0588398999999988	9.83606995
2026-05-02 12:25:01.252	0.14709975	-0.31381279999999884	9.551677100000001
2026-05-02 12:25:01.493	0.0	-0.16671304999999878	9.8851032
2026-05-02 12:25:01.753	0.0	-0.0980664999999988	9.8262633
2026-05-02 12:25:01.993	-0.16671305	-0.23535959999999878	9.8262633
2026-05-02 12:25:02.254	-0.0980665	-0.17651969999999878	9.83606995
2026-05-02 12:25:02.493	-0.0196133	-0.0294199499999988	9.80665
2026-05-02 12:25:02.752	-0.08825985	-0.1569063999999988	9.85568325
2026-05-02 12:25:02.990	-0.1372931	-0.21574629999999878	9.8654899
2026-05-02 12:25:03.252	-0.0588399	-0.0980664999999988	9.8458766
2026-05-02 12:25:03.493	-0.04903325	-0.1274864499999988	9.80665
2026-05-02 12:25:03.753	-0.12748645	-0.17651969999999878	9.87529655
2026-05-02 12:25:03.993	-0.1372931	-0.1176797999999988	9.81645665
2026-05-02 12:25:04.251	-0.0588399	-0.1176797999999988	9.83606995
2026-05-02 12:25:04.490	-0.1176798	-0.1470997499999988	9.85568325
2026-05-02 12:25:04.753	-0.14709975	-0.18632634999999878	9.83606995
2026-05-02 12:25:04.990	-0.0980665	-0.0686465499999988	9.85568325
2026-05-02 12:25:05.252	-0.06864655	-0.16671304999999878	9.8851032
2026-05-02 12:25:05.493	-0.08825985	-0.1274864499999988	9.77723005
2026-05-02 12:25:05.753	-0.0980665	-0.1569063999999988	9.83606995
2026-05-02 12:25:05.994	-0.08825985	-0.1372930999999988	9.8654899
2026-05-02 12:25:06.253	-0.2157463	-0.6374322499999987	10.3165958
2026-05-02 12:25:06.493	0.00980665	-0.01961329999999882	9.6301303
2026-05-02 12:25:06.752	0.0196133	-0.029419949999998807	9.75761675
2026-05-02 12:25:06.993	0.10787315	0.08825985000000121	9.80665
2026-05-02 12:25:07.253	0.06864655	0.02941995000000119	9.7085835
2026-05-02 12:25:07.492	-0.02941995	-0.5099457999999988	9.7674234
2026-05-02 12:25:07.752	-0.10787315	0.37265270000000117	9.83606995
2026-05-02 12:25:07.993	-0.14709975	-0.21574629999999878	9.81645665
2026-05-02 12:25:08.253	0.3334261	-0.27458619999999884	9.6497436
2026-05-02 12:25:08.494	-0.08825985	-0.21574629999999878	10.01258965
2026-05-02 12:25:08.753	-0.14709975	-0.2059396499999988	9.77723005
2026-05-02 12:25:08.993	0.14709975	-0.3432327499999988	9.9047165
2026-05-02 12:25:09.253	-0.00980665	-0.019613299999998782	9.9439431
2026-05-02 12:25:09.490	-0.00980665	-0.2059396499999988	9.7085835
2026-05-02 12:25:09.754	0.0588399	-0.3726526999999987	9.99297635
2026-05-02 12:25:09.990	0.0196133	-0.029419949999998803	9.7674234
2026-05-02 12:25:10.254	-0.0196133	-0.1569063999999988	9.8262633
2026-05-02 12:25:10.493	-0.04903325	-0.3138127999999988	9.91452315
2026-05-02 12:25:10.753	-0.02941995	-0.08825984999999882	9.71839015
2026-05-02 12:25:10.993	-0.10787315	-0.15690639999999878	9.99297635
2026-05-02 12:25:11.260	-0.02941995	-0.25497289999999884	9.7674234
2026-05-02 12:25:11.493	-0.0784532	-0.1176797999999988	9.77723005
2026-05-02 12:25:11.754	-0.16671305	-0.13729309999999878	10.01258965
2026-05-02 12:25:11.993	-0.08825985	-0.2157462999999988	9.67916355
2026-05-02 12:25:12.256	-0.1569064	-0.16671304999999878	9.93413645
2026-05-02 12:25:12.492	-0.1176798	-0.0392265999999988	9.81645665
2026-05-02 12:25:12.753	-0.32361945000000003	-0.0980664999999988	9.75761675
2026-05-02 12:25:12.994	0.00980665	-0.3824593499999988	9.7085835
2026-05-02 12:25:13.255	0.1372931	-0.12748644999999884	9.60071035
2026-05-02 12:25:13.490	0.08825985	-0.2745861999999988	9.8262633
2026-05-02 12:25:13.753	0.1176798	-0.31381279999999884	9.65955025
2026-05-02 12:25:13.993	-0.392266	0.32361945000000125	10.07142955
2026-05-02 12:25:14.254	0.04903325	-0.1569063999999988	9.6889702
2026-05-02 12:25:14.490	0.0196133	-0.2647795499999988	9.95374975
2026-05-02 12:25:14.754	0.0	-0.0882598499999988	9.79684335
2026-05-02 12:25:14.998	0.0	-0.2255529499999988	9.79684335
2026-05-02 12:25:15.253	0.10787315	-0.3628460499999988	9.6497436
2026-05-02 12:25:15.492	0.00980665	-0.13729309999999878	9.9243298
2026-05-02 12:25:15.754	-0.0392266	-0.2941994999999988	9.93413645
2026-05-02 12:25:15.993	0.08825985	-0.2353595999999988	9.65955025
2026-05-02 12:25:16.260	0.2941995	-0.3824593499999988	9.5124505
2026-05-02 12:25:16.493	-0.0196133	-0.12748644999999875	10.0420096
2026-05-02 12:25:16.753	-0.0588399	-0.2059396499999988	9.7870367
2026-05-02 12:25:16.993	-0.3334261	-0.2843928499999988	9.87529655
2026-05-02 12:25:17.252	0.3334261	-0.1863263499999988	9.7870367
2026-05-02 12:25:17.492	0.10787315	0.0588399000000012	9.79684335
2026-05-02 12:25:17.752	0.0980665	-0.17651969999999878	9.83606995
2026-05-02 12:25:17.993	0.12748645	-0.08825984999999878	9.93413645
2026-05-02 12:25:18.252	0.0	-0.2647795499999988	9.69877685
2026-05-02 12:25:18.493	0.04903325	-0.19613299999999878	9.9635564
2026-05-02 12:25:18.752	0.0784532	-0.05883989999999881	9.7478101
2026-05-02 12:25:18.994	0.0	-0.0882598499999988	9.7870367
2026-05-02 12:25:19.254	-0.20593965	-0.16671304999999878	9.99297635
2026-05-02 12:25:19.491	-0.04903325	-0.2255529499999988	9.639936950000001
2026-05-02 12:25:19.756	-0.22555295	-0.07845319999999878	9.97336305
2026-05-02 12:25:19.990	0.2549729	1.2009682532858392e-15	9.80665
2026-05-02 12:25:20.253	0.0	0.2941995000000012	9.9831697
2026-05-02 12:25:20.496	0.26477955	-0.04903324999999881	9.7674234
2026-05-02 12:25:20.751	0.04903325	-0.23535959999999878	9.9047165
2026-05-02 12:25:20.992	0.1765197	-0.0882598499999988	9.80665
2026-05-02 12:25:21.253	0.2353596	0.5883990000000012	10.091042850000001
2026-05-02 12:25:21.491	-0.06864655	0.6766588500000011	9.4536106
2026-05-02 12:25:21.754	-0.24516625	-0.3334260999999987	10.1204628
2026-05-02 12:25:21.990	0.04903325	-0.11767979999999882	9.71839015
2026-05-02 12:25:22.250	0.0980665	-0.1569063999999988	9.69877685
2026-05-02 12:25:22.491	-0.04903325	-0.3138127999999988	10.01258965
2026-05-02 12:25:22.751	0.00980665	-0.1667130499999988	9.67916355
2026-05-02 12:25:22.995	0.06864655	-0.0686465499999988	9.9047165
2026-05-02 12:25:23.250	-0.0196133	-0.18632634999999878	9.8262633
2026-05-02 12:25:23.490	-0.0196133	-0.1372930999999988	9.85568325
2026-05-02 12:25:23.750	-0.0392266	-0.0784531999999988	9.87529655
2026-05-02 12:25:23.991	-0.0392266	-0.1176797999999988	9.7870367
2026-05-02 12:25:24.253	0.0	-0.1176797999999988	9.8458766
2026-05-02 12:25:24.490	-0.06864655	-0.1470997499999988	9.85568325
2026-05-02 12:25:24.750	-0.0588399	-0.0882598499999988	9.87529655
2026-05-02 12:25:24.990	-0.04903325	-0.0784531999999988	9.80665
2026-05-02 12:25:25.252	-0.08825985	-0.1372930999999988	9.8654899
2026-05-02 12:25:25.491	-0.06864655	-0.04903324999999879	9.85568325
2026-05-02 12:25:25.749	-0.10787315	-0.1372930999999988	9.80665
2026-05-02 12:25:25.991	-0.0980665	-0.12748644999999878	9.9047165
2026-05-02 12:25:26.250	-0.0784532	-0.0588398999999988	9.7870367
2026-05-02 12:25:26.495	-0.1372931	-0.11767979999999878	9.89490985
2026-05-02 12:25:26.751	-0.1176798	-0.1176797999999988	9.8458766
2026-05-02 12:25:26.991	-0.06864655	-0.1078731499999988	9.7674234
2026-05-02 12:25:27.250	-0.1569064	-0.12748644999999878	9.9243298
2026-05-02 12:25:27.490	-0.12748645	-0.1078731499999988	9.85568325
2026-05-02 12:25:27.750	-0.08825985	-0.0980664999999988	9.75761675
2026-05-02 12:25:27.993	-0.14709975	-0.1176797999999988	9.8654899
2026-05-02 12:25:28.253	-0.1765197	-0.12748644999999878	9.9047165
2026-05-02 12:25:28.493	-0.0392266	-0.1274864499999988	9.80665
2026-05-02 12:25:28.753	-0.0784532	-0.0392265999999988	9.8262633
2026-05-02 12:25:28.993	-0.18632635	-0.1274864499999988	9.85568325
2026-05-02 12:25:29.252	-0.1176798	-0.16671304999999878	9.8654899
2026-05-02 12:25:29.491	-0.0392266	-0.0392265999999988	9.79684335
2026-05-02 12:25:29.753	-0.08825985	-0.0882598499999988	9.83606995
2026-05-02 12:25:29.991	-0.16671305	-0.13729309999999878	9.9243298
2026-05-02 12:25:30.252	-0.08825985	-0.0980664999999988	9.7674234
2026-05-02 12:25:30.493	-0.0784532	-0.0882598499999988	9.8654899
2026-05-02 12:25:30.753	-0.12748645	-0.1470997499999988	9.87529655
2026-05-02 12:25:30.994	-0.0784532	-0.0980664999999988	9.83606995
2026-05-02 12:25:31.253	-0.0392266	-0.0882598499999988	9.81645665
2026-05-02 12:25:31.493	-0.14709975	-0.12748644999999878	9.89490985
2026-05-02 12:25:31.752	-0.06864655	-0.1274864499999988	9.8262633
2026-05-02 12:25:31.992	-0.0588399	-0.0980664999999988	9.79684335
2026-05-02 12:25:32.251	-0.1372931	-0.13729309999999878	9.91452315
2026-05-02 12:25:32.493	-0.06864655	-0.1078731499999988	9.81645665
2026-05-02 12:25:32.752	-0.0196133	-0.1176797999999988	9.80665
2026-05-02 12:25:32.993	-0.06864655	-0.16671304999999878	9.8654899
2026-05-02 12:25:33.257	-0.08825985	-0.0686465499999988	9.8458766
2026-05-02 12:25:33.492	-0.12748645	-0.1176797999999988	9.87529655
2026-05-02 12:25:33.752	-0.04903325	-0.1470997499999988	9.80665
2026-05-02 12:25:33.995	-0.0980665	-0.1078731499999988	9.7870367
2026-05-02 12:25:34.254	-0.1765197	-0.06864654999999878	9.95374975
2026-05-02 12:25:34.492	0.0	-0.1274864499999988	9.73800345
2026-05-02 12:25:34.754	-0.0980665	-0.1176797999999988	9.85568325
2026-05-02 12:25:34.994	-0.14709975	-0.019613299999998782	9.9439431
2026-05-02 12:25:35.252	-0.0392266	-0.10787314999999882	9.6889702
2026-05-02 12:25:35.493	-0.12748645	-0.07845319999999878	9.95374975
2026-05-02 12:25:35.754	-0.1765197	-0.0588398999999988	9.8458766
2026-05-02 12:25:35.993	-0.1765197	-0.1078731499999988	9.79684335
2026-05-02 12:25:36.249	-0.196133	-0.09806649999999878	9.9243298
2026-05-02 12:25:36.492	-0.1569064	-0.0980664999999988	9.7478101
2026-05-02 12:25:36.752	-0.22555295	-0.12748644999999878	9.9047165
2026-05-02 12:25:36.992	-0.2353596	-0.0784531999999988	9.83606995
2026-05-02 12:25:37.253	-0.2353596	-0.0980664999999988	9.7674234
2026-05-02 12:25:37.495	-0.26477955	-0.11767979999999878	9.95374975
2026-05-02 12:25:37.754	-0.2157463	-0.1274864499999988	9.73800345
2026-05-02 12:25:37.993	-0.2549729	-0.1078731499999988	9.8654899
2026-05-02 12:25:38.254	-0.2745862	-0.0784531999999988	9.89490985
2026-05-02 12:25:38.499	-0.18632635	-0.1667130499999988	9.79684335
2026-05-02 12:25:38.761	-0.196133	-0.1372930999999988	9.87529655
2026-05-02 12:25:38.992	-0.2353596	-0.1078731499999988	9.79684335
2026-05-02 12:25:39.254	-0.2157463	-0.08825984999999878	9.89490985
2026-05-02 12:25:39.492	-0.14709975	-0.1765196999999988	9.80665
2026-05-02 12:25:39.753	-0.22555295	-0.1470997499999988	9.8262633
2026-05-02 12:25:39.993	-0.2157463	-0.0686465499999988	9.89490985
2026-05-02 12:25:40.253	-0.1372931	-0.1274864499999988	9.81645665
2026-05-02 12:25:40.493	-0.1765197	-0.18632634999999878	9.8654899
2026-05-02 12:25:40.752	-0.22555295	-0.0784531999999988	9.8262633
2026-05-02 12:25:40.993	-0.16671305	-0.0882598499999988	9.8458766
2026-05-02 12:25:41.251	-0.1176798	-0.16671304999999878	9.85568325
2026-05-02 12:25:41.493	-0.2157463	-0.1274864499999988	9.83606995
2026-05-02 12:25:41.753	-0.20593965	-0.05883989999999879	9.85568325
2026-05-02 12:25:41.993	-0.12748645	-0.1372930999999988	9.80665
2026-05-02 12:25:42.255	-0.1372931	-0.17651969999999878	9.8262633
2026-05-02 12:25:42.492	-0.196133	-0.029419949999998786	9.9243298
2026-05-02 12:25:42.752	-0.1372931	-0.0980664999999988	9.77723005
2026-05-02 12:25:42.999	-0.14709975	-0.21574629999999878	9.85568325
2026-05-02 12:25:43.261	-0.1765197	-0.04903324999999879	9.89490985
2026-05-02 12:25:43.500	-0.0980665	-0.0882598499999988	9.77723005
2026-05-02 12:25:43.754	-0.14709975	-0.1569063999999988	9.8654899
2026-05-02 12:25:43.993	-0.1765197	-0.1176797999999988	9.83606995
2026-05-02 12:25:44.257	-0.1176798	-0.0588398999999988	9.8458766
2026-05-02 12:25:44.490	-0.14709975	-0.1372930999999988	9.8851032
2026-05-02 12:25:44.752	-0.12748645	-0.1470997499999988	9.79684335
2026-05-02 12:25:44.992	-0.1176798	-0.0882598499999988	9.8262633
2026-05-02 12:25:45.251	-0.1765197	-0.0686465499999988	9.85568325
2026-05-02 12:25:45.493	-0.196133	-0.17651969999999878	9.87529655
2026-05-02 12:25:45.754	-0.0980665	-0.1372930999999988	9.80665
2026-05-02 12:25:45.993	-0.1765197	-0.0686465499999988	9.79684335
2026-05-02 12:25:46.254	-0.1765197	-0.10787314999999878	9.9047165
2026-05-02 12:25:46.491	-0.28439285000000003	-0.19613299999999878	9.83606995
2026-05-02 12:25:46.753	-0.24516625	-0.1176797999999988	9.81645665
2026-05-02 12:25:46.992	-0.20593965	-0.1078731499999988	9.81645665
2026-05-02 12:25:47.259	-0.34323275	-0.16671304999999878	9.87529655
2026-05-02 12:25:47.493	-0.196133	-0.1274864499999988	9.8654899
2026-05-02 12:25:47.752	-0.08825985	-0.1470997499999988	9.79684335
2026-05-02 12:25:47.989	0.02941995	-0.0882598499999988	9.8458766
2026-05-02 12:25:48.254	-0.0196133	-0.03922659999999879	9.8654899
2026-05-02 12:25:48.492	0.00980665	-0.07845319999999881	9.77723005
2026-05-02 12:25:48.752	0.1569064	-0.0784531999999988	9.8851032
2026-05-02 12:25:48.993	0.48052585000000003	-0.0686465499999988	9.7870367
2026-05-02 12:25:49.252	0.20593965	-0.0686465499999988	9.89490985
2026-05-02 12:25:49.491	0.6276256	-0.0980664999999988	9.7478101
2026-05-02 12:25:49.753	0.2941995	-0.0882598499999988	9.80665
2026-05-02 12:25:49.992	0.588399	-0.03922659999999879	9.85568325
2026-05-02 12:25:50.252	0.2549729	-0.05883989999999879	9.85568325
2026-05-02 12:25:50.492	0.36284605000000003	-0.0784531999999988	9.80665
2026-05-02 12:25:50.752	0.34323275	-0.04903324999999879	9.87529655
2026-05-02 12:25:50.994	0.42168595	-0.0294199499999988	9.81645665
2026-05-02 12:25:51.252	-0.04903325	-0.09806649999999878	9.9243298
2026-05-02 12:25:51.495	0.196133	-0.0588398999999988	9.81645665
2026-05-02 12:25:51.752	0.7453054	1.1937624437661242e-15	9.7478101
2026-05-02 12:25:51.992	0.75511205	-0.10787314999999878	9.9635564
2026-05-02 12:25:52.253	0.6080123	-0.07845319999999882	9.69877685
2026-05-02 12:25:52.492	0.02941995	-0.039226599999998786	9.9243298
2026-05-02 12:25:52.752	0.3726527	-0.0392265999999988	9.8262633
2026-05-02 12:25:53.003	-0.1176798	-0.19613299999999878	9.8458766
2026-05-02 12:25:53.253	0.38245935	-0.0490332499999988	9.81645665
2026-05-02 12:25:53.492	-0.00980665	-0.0294199499999988	9.8262633
2026-05-02 12:25:53.760	0.36284605000000003	-0.1078731499999988	9.7870367
2026-05-02 12:25:53.993	0.0392266	-0.15690639999999878	9.9047165
2026-05-02 12:25:54.254	0.2549729	-0.04903324999999881	9.77723005
2026-05-02 12:25:54.491	0.1176798	-0.08825984999999878	9.89490985
2026-05-02 12:25:54.753	0.06864655	-0.1372930999999988	9.85568325
2026-05-02 12:25:54.992	0.32361945000000003	-0.1078731499999988	9.7674234
2026-05-02 12:25:55.252	0.4903325	-0.04903324999999878	9.9243298
2026-05-02 12:25:55.492	0.44129925000000003	-0.029419949999998807	9.7478101
2026-05-02 12:25:55.753	0.2549729	-0.11767979999999878	9.9243298
2026-05-02 12:25:55.992	0.196133	-0.1372930999999988	9.8458766
2026-05-02 12:25:56.254	0.2353596	-0.1078731499999988	9.7478101
2026-05-02 12:25:56.492	0.1569064	-0.11767979999999878	9.9439431
2026-05-02 12:25:56.752	0.10787315	-0.0882598499999988	9.7870367
2026-05-02 12:25:56.992	0.0196133	-0.1470997499999988	9.8654899
2026-05-02 12:25:57.266	0.02941995	-0.1078731499999988	9.8458766
2026-05-02 12:25:57.491	-0.14709975	-0.0980664999999988	9.81645665
2026-05-02 12:25:57.753	-0.1569064	-0.0686465499999988	9.8458766
2026-05-02 12:25:57.993	-0.5099458	-0.14709974999999878	9.89490985
2026-05-02 12:25:58.250	0.02941995	-0.1470997499999988	9.83606995
2026-05-02 12:25:58.490	-0.0980665	-0.1176797999999988	9.8262633
2026-05-02 12:25:58.755	-0.1176798	-0.0980664999999988	9.8458766
2026-05-02 12:25:58.998	-0.00980665	-0.1569063999999988	9.80665
2026-05-02 12:25:59.250	0.2353596	1.2117769675654117e-15	9.89490985
2026-05-02 12:25:59.500	0.2353596	-0.07845319999999881	9.7281968
2026-05-02 12:25:59.749	0.04903325	-0.1176797999999988	9.8654899
2026-05-02 12:25:59.991	-0.02941995	-0.09806649999999878	9.9243298
2026-05-02 12:26:00.253	0.1176798	-0.08825984999999882	9.69877685
2026-05-02 12:26:00.490	0.4118793	-0.08825984999999878	9.97336305
2026-05-02 12:26:00.754	0.28439285000000003	-0.0882598499999988	9.83606995
2026-05-02 12:26:00.990	0.3530394	-0.029419949999998803	9.7870367
2026-05-02 12:26:01.250	0.1569064	-0.10787314999999878	9.89490985
2026-05-02 12:26:01.493	0.06864655	-0.0686465499999988	9.7870367
2026-05-02 12:26:01.749	0.10787315	-0.04903324999999879	9.9047165
2026-05-02 12:26:01.998	0.26477955	-0.18632634999999878	9.8262633
2026-05-02 12:26:02.259	0.2549729	-0.06864654999999881	9.7478101
2026-05-02 12:26:02.490	-0.02941995	-0.05883989999999878	9.93413645
2026-05-02 12:26:02.752	-0.02941995	-0.1961329999999988	9.80665
2026-05-02 12:26:02.996	-0.04903325	-0.019613299999998793	9.8458766
2026-05-02 12:26:03.259	0.1569064	-0.0490332499999988	9.8262633
2026-05-02 12:26:03.491	0.20593965	-0.17651969999999878	9.81645665
2026-05-02 12:26:03.750	0.14709975	-0.0980664999999988	9.81645665
2026-05-02 12:26:03.990	0.04903325	-0.0784531999999988	9.89490985
2026-05-02 12:26:04.250	0.12748645	-0.1078731499999988	9.8262633
2026-05-02 12:26:04.490	0.16671305	-0.17651969999999878	9.8262633
2026-05-02 12:26:04.751	0.1176798	-0.0980664999999988	9.87529655
2026-05-02 12:26:04.993	-0.02941995	-0.0882598499999988	9.85568325
2026-05-02 12:26:05.253	0.02941995	-0.1569063999999988	9.85568325
2026-05-02 12:26:05.491	-0.0392266	-0.1274864499999988	9.8262633
2026-05-02 12:26:05.753	-0.24516625	-0.03922659999999879	9.8458766
2026-05-02 12:26:05.994	-0.2157463	-0.05883989999999879	9.91452315
2026-05-02 12:26:06.250	-0.1765197	-0.1372930999999988	9.8262633
2026-05-02 12:26:06.491	-0.02941995	-0.0686465499999988	9.8262633
2026-05-02 12:26:06.754	0.20593965	-0.08825984999999878	9.9047165
2026-05-02 12:26:06.990	0.0392266	-0.16671304999999878	9.83606995
2026-05-02 12:26:07.249	-0.0980665	-0.0784531999999988	9.7870367
2026-05-02 12:26:07.490	-0.0196133	-0.10787314999999878	9.93413645
2026-05-02 12:26:07.759	0.08825985	-0.0686465499999988	9.81645665
2026-05-02 12:26:07.997	0.10787315	-0.1274864499999988	9.79684335
2026-05-02 12:26:08.253	0.0588399	-0.04903324999999878	9.95374975
2026-05-02 12:26:08.496	0.14709975	-0.06864654999999881	9.73800345
2026-05-02 12:26:08.756	0.0784532	-0.0686465499999988	9.85568325
2026-05-02 12:26:09.001	-0.0196133	-0.1274864499999988	9.87529655
2026-05-02 12:26:09.250	-0.2549729	-0.10787314999999884	9.54187045
2026-05-02 12:26:09.493	-0.3726527	0.15690640000000122	9.93413645
2026-05-02 12:26:09.753	-0.1569064	-0.09806649999999878	9.9635564
2026-05-02 12:26:10.013	0.10787315	-0.07845319999999882	9.62032365
2026-05-02 12:26:10.257	-0.1765197	0.10787315000000122	9.91452315
2026-05-02 12:26:10.493	-0.1176798	-0.0784531999999988	9.8851032
2026-05-02 12:26:10.764	0.0	-0.04903324999999883	9.5909037
2026-05-02 12:26:10.998	-0.1765197	-0.009806649999998763	10.1008495
2026-05-02 12:26:11.253	0.00980665	-0.049033249999998814	9.69877685
2026-05-02 12:26:11.496	0.04903325	-0.17651969999999878	9.9047165
2026-05-02 12:26:11.753	1.57887065	0.6276256000000012	10.7284751
2026-05-02 12:26:11.999	0.0784532	-0.12748644999999886	9.3359308
2026-05-02 12:26:12.255	-0.24516625	-0.3040061499999987	10.50292215
2026-05-02 12:26:12.495	-0.06864655	-0.13729309999999886	9.3359308
2026-05-02 12:26:12.761	-0.02941995	-0.2745861999999988	10.0420096
2026-05-02 12:26:12.996	-0.06864655	-0.05883989999999879	9.89490985
2026-05-02 12:26:13.260	-0.0196133	-0.18632634999999886	9.48303055
2026-05-02 12:26:13.498	-0.20593965	-0.21574629999999875	10.30678915
2026-05-02 12:26:13.753	0.0	-0.09806649999999884	9.4928372
2026-05-02 12:26:14.001	-0.04903325	-0.20593964999999878	9.95374975
2026-05-02 12:26:14.256	-0.1176798	-0.16671304999999878	10.03220295
2026-05-02 12:26:14.495	-0.02941995	-0.14709974999999884	9.5909037
2026-05-02 12:26:14.756	-0.0588399	-0.17651969999999878	10.0420096
2026-05-02 12:26:14.998	-0.04903325	-0.09806649999999882	9.6693569
2026-05-02 12:26:15.254	-0.1765197	-0.16671304999999878	9.85568325
2026-05-02 12:26:15.492	-0.1372931	-0.19613299999999878	9.95374975
2026-05-02 12:26:15.755	-0.04903325	-0.11767979999999882	9.6301303
2026-05-02 12:26:15.991	-0.14709975	-0.11767979999999878	9.95374975
2026-05-02 12:26:16.249	-0.1176798	-0.17651969999999878	9.83606995
2026-05-02 12:26:16.492	-0.12748645	-0.1372930999999988	9.8458766
2026-05-02 12:26:16.749	-0.04903325	-0.1569063999999988	9.87529655
2026-05-02 12:26:16.990	-0.1176798	-0.0882598499999988	9.77723005
2026-05-02 12:26:17.249	-0.16671305	-0.16671304999999878	9.97336305
2026-05-02 12:26:17.492	-0.0392266	-0.1569063999999988	9.7870367
2026-05-02 12:26:17.751	0.0	-0.09806649999999882	9.73800345
2026-05-02 12:26:17.992	-0.20593965	-0.12748644999999878	9.99297635
2026-05-02 12:26:18.254	-0.0980665	-0.2255529499999988	9.7674234
2026-05-02 12:26:18.490	-0.0980665	-0.1176797999999988	9.81645665
2026-05-02 12:26:18.749	-0.1372931	-0.0882598499999988	9.8851032
2026-05-02 12:26:18.994	-0.0980665	-0.1569063999999988	9.73800345
2026-05-02 12:26:19.254	-0.1765197	-0.17651969999999878	9.93413645
2026-05-02 12:26:19.492	-0.0980665	-0.0882598499999988	9.7478101
2026-05-02 12:26:19.753	-0.0980665	-0.0784531999999988	9.9047165
2026-05-02 12:26:19.992	-0.0784532	-0.16671304999999878	9.8654899
2026-05-02 12:26:20.253	-0.1176798	-0.1863263499999988	9.77723005
2026-05-02 12:26:20.492	-0.14709975	-0.019613299999998786	9.91452315
2026-05-02 12:26:20.749	-0.1176798	-0.1078731499999988	9.8458766
2026-05-02 12:26:20.995	-0.0588399	-0.1765196999999988	9.80665
2026-05-02 12:26:21.252	-0.18632635	-0.12748644999999878	9.93413645
2026-05-02 12:26:21.491	-0.14709975	-0.03922659999999879	9.83606995
2026-05-02 12:26:21.764	-0.0980665	-0.20593964999999878	9.8262633
2026-05-02 12:26:21.992	-0.06864655	-0.1372930999999988	9.8458766
2026-05-02 12:26:22.252	-0.1765197	-0.0686465499999988	9.8851032
2026-05-02 12:26:22.491	-0.04903325	-0.1569063999999988	9.8458766
2026-05-02 12:26:22.751	-0.08825985	-0.1372930999999988	9.80665
2026-05-02 12:26:22.992	-0.16671305	-0.0980664999999988	9.87529655
2026-05-02 12:26:23.256	-0.10787315	-0.12748644999999878	9.89490985
2026-05-02 12:26:23.493	-0.0588399	-0.1176797999999988	9.79684335
2026-05-02 12:26:23.751	-0.1765197	-0.16671304999999878	9.89490985
2026-05-02 12:26:23.991	-0.08825985	-0.1078731499999988	9.77723005
2026-05-02 12:26:24.252	-0.10787315	-0.1176797999999988	9.8654899
2026-05-02 12:26:24.490	-0.196133	-0.1372930999999988	9.8851032
2026-05-02 12:26:24.752	-0.10787315	-0.1274864499999988	9.75761675
2026-05-02 12:26:24.992	-0.08825985	-0.0882598499999988	9.85568325
2026-05-02 12:26:25.259	-0.20593965	-0.0686465499999988	9.9047165
2026-05-02 12:26:25.492	-0.0980665	-0.2059396499999988	9.7674234
2026-05-02 12:26:25.751	-0.1372931	-0.0882598499999988	9.8458766
2026-05-02 12:26:25.993	-0.1765197	-0.0882598499999988	9.83606995
2026-05-02 12:26:26.256	-0.08825985	-0.1470997499999988	9.8262633
2026-05-02 12:26:26.492	-0.02941995	-0.0980664999999988	9.7870367
2026-05-02 12:26:26.758	-0.2157463	-0.08825984999999878	9.9243298
2026-05-02 12:26:26.992	-0.1765197	-0.0980664999999988	9.8851032
2026-05-02 12:26:27.252	-0.00980665	-0.1274864499999988	9.7478101
2026-05-02 12:26:27.495	-0.08825985	-0.1372930999999988	9.8458766
2026-05-02 12:26:27.755	-0.24516625	-0.06864654999999878	9.9243298
2026-05-02 12:26:27.990	-0.08825985	-0.1274864499999988	9.83606995
2026-05-02 12:26:28.253	-0.00980665	-0.2157462999999988	9.73800345
2026-05-02 12:26:28.496	-0.1569064	-0.05883989999999879	9.89490985
2026-05-02 12:26:28.753	-0.22555295	-0.08825984999999878	9.89490985
2026-05-02 12:26:28.992	-0.08825985	-0.20593964999999878	9.8262633
2026-05-02 12:26:29.250	-0.0196133	-0.1372930999999988	9.7870367
2026-05-02 12:26:29.493	-0.2353596	-0.01961329999999879	9.8851032
2026-05-02 12:26:29.753	-0.14709975	-0.13729309999999878	9.91452315
2026-05-02 12:26:29.994	-0.02941995	-0.1569063999999988	9.75761675
2026-05-02 12:26:30.253	-0.16671305	-0.1176797999999988	9.8851032
2026-05-02 12:26:30.492	-0.196133	-0.0784531999999988	9.89490985
2026-05-02 12:26:30.753	-0.06864655	-0.1372930999999988	9.80665
2026-05-02 12:26:30.990	-0.0784532	-0.1274864499999988	9.81645665
2026-05-02 12:26:31.252	-0.196133	-0.1078731499999988	9.8654899
2026-05-02 12:26:31.492	-0.14709975	-0.029419949999998786	9.9047165
2026-05-02 12:26:31.759	-0.02941995	-0.1569063999999988	9.7870367
2026-05-02 12:26:31.989	-0.1176798	-0.1078731499999988	9.87529655
2026-05-02 12:26:32.251	-0.08825985	-0.0588398999999988	9.83606995
2026-05-02 12:26:32.496	-0.0980665	-0.1176797999999988	9.8262633
2026-05-02 12:26:32.757	-0.1569064	-0.14709974999999878	9.9047165
2026-05-02 12:26:32.992	-0.08825985	-0.1176797999999988	9.80665
2026-05-02 12:26:33.251	-0.0784532	-0.0980664999999988	9.81645665
2026-05-02 12:26:33.491	-0.1569064	-0.1274864499999988	9.8654899
2026-05-02 12:26:33.750	-0.16671305	-0.1372930999999988	9.8262633
2026-05-02 12:26:33.994	-0.0784532	-0.12748644999999878	9.9047165
2026-05-02 12:26:34.252	-0.0784532	-0.1372930999999988	9.80665
2026-05-02 12:26:34.490	-0.10787315	-0.1176797999999988	9.81645665
2026-05-02 12:26:34.752	-0.1176798	-0.0980664999999988	9.83606995
2026-05-02 12:26:34.992	-0.196133	-0.11767979999999878	9.9047165
2026-05-02 12:26:35.252	-0.0980665	-0.1569063999999988	9.8262633
2026-05-02 12:26:35.493	-0.00980665	-0.07845319999999881	9.7281968
2026-05-02 12:26:35.753	-0.14709975	-0.10787314999999878	9.9047165
2026-05-02 12:26:35.992	-0.196133	-0.12748644999999878	9.9243298
2026-05-02 12:26:36.251	-0.08825985	-0.1078731499999988	9.8262633
2026-05-02 12:26:36.491	0.00980665	-0.1176797999999988	9.7674234
2026-05-02 12:26:36.751	-0.1765197	-0.14709974999999878	9.89490985
2026-05-02 12:26:36.991	-0.1765197	-0.0882598499999988	9.8654899
2026-05-02 12:26:37.254	-0.0392266	-0.0980664999999988	9.81645665
2026-05-02 12:26:37.492	-0.06864655	-0.16671304999999878	9.8851032
2026-05-02 12:26:37.753	-0.1569064	-0.0882598499999988	9.8458766
2026-05-02 12:26:37.995	-0.08825985	-0.0980664999999988	9.8458766
2026-05-02 12:26:38.250	-0.02941995	-0.1372930999999988	9.79684335
2026-05-02 12:26:38.491	-0.18632635	-0.10787314999999878	9.9243298
2026-05-02 12:26:38.753	-0.1372931	-0.1176797999999988	9.87529655
2026-05-02 12:26:38.992	-0.06864655	-0.1569063999999988	9.7478101
2026-05-02 12:26:39.257	-0.14709975	-0.13729309999999878	9.89490985
2026-05-02 12:26:39.494	-0.14709975	-0.1078731499999988	9.8262633
2026-05-02 12:26:39.752	-0.0980665	-0.1470997499999988	9.8654899
2026-05-02 12:26:39.991	-0.16671305	-0.1176797999999988	9.83606995
2026-05-02 12:26:40.252	-0.12748645	-0.1078731499999988	9.8262633
2026-05-02 12:26:40.491	-0.1176798	-0.17651969999999878	9.8262633
2026-05-02 12:26:40.751	-0.14709975	-0.1078731499999988	9.8458766
2026-05-02 12:26:40.993	-0.1372931	-0.0882598499999988	9.8458766
2026-05-02 12:26:41.250	-0.1372931	-0.1274864499999988	9.81645665
2026-05-02 12:26:41.492	-0.0980665	-0.1863263499999988	9.80665
2026-05-02 12:26:41.753	-0.14709975	-0.0686465499999988	9.85568325
2026-05-02 12:26:41.991	-0.1176798	-0.1372930999999988	9.87529655
2026-05-02 12:26:42.252	-0.0392266	-0.1274864499999988	9.83606995
2026-05-02 12:26:42.492	-0.12748645	-0.0686465499999988	9.8262633
2026-05-02 12:26:42.752	-0.1765197	-0.17651969999999878	9.8654899
2026-05-02 12:26:42.992	-0.04903325	-0.17651969999999878	9.87529655
2026-05-02 12:26:43.259	-0.02941995	1.1961643802726959e-15	9.7674234
2026-05-02 12:26:43.492	-0.2157463	-0.18632634999999878	9.93413645
2026-05-02 12:26:43.756	-0.10787315	-0.2353595999999988	9.7674234
2026-05-02 12:26:43.991	-0.0588399	-0.03922659999999879	9.83606995
2026-05-02 12:26:44.251	-0.1765197	-0.06864654999999878	9.93413645
2026-05-02 12:26:44.493	-0.0588399	-0.2353595999999988	9.71839015
2026-05-02 12:26:44.757	-0.1176798	-0.1176797999999988	9.85568325
2026-05-02 12:26:44.992	-0.18632635	-0.08825984999999878	9.89490985
2026-05-02 12:26:45.252	-0.0980665	-0.1569063999999988	9.7870367
2026-05-02 12:26:45.497	-0.0392266	-0.1372930999999988	9.80665
2026-05-02 12:26:45.751	-0.2549729	-0.1078731499999988	9.85568325
2026-05-02 12:26:45.995	-0.1765197	-0.1274864499999988	9.8654899
2026-05-02 12:26:46.251	-0.04903325	-0.1078731499999988	9.81645665
2026-05-02 12:26:46.505	-0.0980665	-0.1176797999999988	9.83606995
2026-05-02 12:26:46.751	-0.2353596	-0.15690639999999878	9.9047165
2026-05-02 12:26:46.992	-0.06864655	-0.0784531999999988	9.79684335
2026-05-02 12:26:47.250	-0.04903325	-0.07845319999999881	9.77723005
2026-05-02 12:26:47.492	-0.1569064	-0.16671304999999878	9.9243298
2026-05-02 12:26:47.751	-0.14709975	-0.1078731499999988	9.85568325
2026-05-02 12:26:47.993	-0.0196133	-0.0882598499999988	9.81645665
2026-05-02 12:26:48.256	-0.10787315	-0.1569063999999988	9.85568325
2026-05-02 12:26:48.491	-0.1176798	-0.1372930999999988	9.85568325
2026-05-02 12:26:48.749	-0.0980665	-0.0784531999999988	9.8458766
2026-05-02 12:26:48.992	-0.04903325	-0.1372930999999988	9.85568325
2026-05-02 12:26:49.250	-0.12748645	-0.16671304999999878	9.81645665
2026-05-02 12:26:49.491	-0.1176798	-0.1372930999999988	9.87529655
2026-05-02 12:26:49.751	-0.10787315	-0.1274864499999988	9.87529655
2026-05-02 12:26:49.991	-0.0588399	-0.1176797999999988	9.7674234
2026-05-02 12:26:50.251	-0.0980665	-0.1274864499999988	9.8851032
2026-05-02 12:26:50.492	-0.1372931	-0.16671304999999878	9.81645665
2026-05-02 12:26:50.752	-0.1176798	-0.1470997499999988	9.8458766
2026-05-02 12:26:50.991	-0.1372931	-0.1078731499999988	9.8851032
2026-05-02 12:26:51.254	-0.0784532	-0.0980664999999988	9.80665
2026-05-02 12:26:51.489	-0.14709975	-0.1569063999999988	9.8654899
2026-05-02 12:26:51.757	-0.14709975	-0.09806649999999878	9.89490985
2026-05-02 12:26:51.989	-0.06864655	-0.0588398999999988	9.80665
2026-05-02 12:26:52.248	-0.1569064	-0.1569063999999988	9.87529655
2026-05-02 12:26:52.489	-0.14709975	-0.1372930999999988	9.85568325
2026-05-02 12:26:52.752	-0.0784532	-0.0686465499999988	9.8458766
2026-05-02 12:26:52.992	-0.06864655	-0.0980664999999988	9.83606995
2026-05-02 12:26:53.253	-0.1569064	-0.19613299999999878	9.8458766
2026-05-02 12:26:53.489	-0.1569064	-0.0784531999999988	9.89490985
2026-05-02 12:26:53.752	-0.1176798	-0.1176797999999988	9.87529655
2026-05-02 12:26:53.993	-0.0392266	-0.1863263499999988	9.7674234
2026-05-02 12:26:54.252	-0.196133	-0.09806649999999878	9.89490985
2026-05-02 12:26:54.490	-0.16671305	-0.16671304999999878	9.87529655
2026-05-02 12:26:54.752	-0.0588399	-0.1863263499999988	9.79684335
2026-05-02 12:26:54.991	-0.12748645	-0.0784531999999988	9.85568325
2026-05-02 12:26:55.251	-0.24516625	-0.1372930999999988	9.87529655
2026-05-02 12:26:55.498	-0.1176798	-0.1274864499999988	9.8458766
2026-05-02 12:26:55.752	-0.08825985	-0.1078731499999988	9.75761675
2026-05-02 12:26:55.992	-0.16671305	-0.16671304999999878	9.83606995
2026-05-02 12:26:56.253	-0.16671305	-0.0980664999999988	9.83606995
2026-05-02 12:26:56.493	-0.1176798	-0.0882598499999988	9.8458766
2026-05-02 12:26:56.756	-0.1372931	-0.14709974999999878	9.91452315
2026-05-02 12:26:56.992	-0.16671305	-0.0980664999999988	9.77723005
2026-05-02 12:26:57.252	-0.1176798	-0.0882598499999988	9.8458766
2026-05-02 12:26:57.491	-0.12748645	-0.0980664999999988	9.8851032
2026-05-02 12:26:57.751	-0.18632635	-0.1176797999999988	9.85568325
2026-05-02 12:26:57.991	-0.1176798	-0.1569063999999988	9.80665
2026-05-02 12:26:58.251	-0.2549729	-0.1078731499999988	9.8851032
2026-05-02 12:26:58.491	-0.2941995	-0.0980664999999988	9.8262633
2026-05-02 12:26:58.751	-0.1569064	-0.18632634999999878	9.83606995
2026-05-02 12:26:58.991	-0.12748645	-0.1176797999999988	9.8654899
2026-05-02 12:26:59.251	-0.14709975	-0.0784531999999988	9.81645665
2026-05-02 12:26:59.491	-0.14709975	-0.1176797999999988	9.81645665
2026-05-02 12:26:59.752	-0.2941995	-0.16671304999999878	9.9047165
2026-05-02 12:26:59.992	-0.14709975	-0.1274864499999988	9.80665
2026-05-02 12:27:00.252	-0.0196133	-0.18632634999999878	9.81645665
2026-05-02 12:27:00.491	-0.0784532	-0.0686465499999988	9.89490985
2026-05-02 12:27:00.753	-0.04903325	-0.1176797999999988	9.8262633
2026-05-02 12:27:00.992	-0.10787315	-0.18632634999999878	9.89490985
2026-05-02 12:27:01.251	0.00980665	-0.0980664999999988	9.7870367
2026-05-02 12:27:01.492	-0.0784532	-0.0980664999999988	9.8262633
2026-05-02 12:27:01.752	-0.02941995	-0.13729309999999878	9.93413645
2026-05-02 12:27:01.994	-0.0784532	-0.1176797999999988	9.8262633
2026-05-02 12:27:02.252	0.0	-0.0980664999999988	9.7870367
2026-05-02 12:27:02.491	-0.20593965	-0.16671304999999878	9.95374975
2026-05-02 12:27:02.752	-0.0588399	-0.1078731499999988	9.79684335
2026-05-02 12:27:02.993	0.00980665	-0.1274864499999988	9.83606995
2026-05-02 12:27:03.254	-0.00980665	-0.0882598499999988	9.8654899
2026-05-02 12:27:03.491	-0.0980665	-0.1176797999999988	9.8262633
2026-05-02 12:27:03.759	-0.02941995	-0.1569063999999988	9.8851032
2026-05-02 12:27:03.988	-0.02941995	-0.0784531999999988	9.8262633
2026-05-02 12:27:04.252	-0.0588399	-0.16671304999999878	9.83606995
2026-05-02 12:27:04.491	-0.10787315	-0.12748644999999878	9.89490985
2026-05-02 12:27:04.751	-0.02941995	-0.1274864499999988	9.79684335
2026-05-02 12:27:04.992	-0.08825985	-0.0784531999999988	9.8654899
2026-05-02 12:27:05.253	-0.0784532	-0.1274864499999988	9.8654899
2026-05-02 12:27:05.489	-0.04903325	-0.1470997499999988	9.7478101
2026-05-02 12:27:05.754	-0.0980665	-0.05883989999999879	9.89490985
2026-05-02 12:27:05.994	-0.14709975	-0.1274864499999988	9.8458766
2026-05-02 12:27:06.257	-0.02941995	-0.1961329999999988	9.80665
2026-05-02 12:27:06.489	-0.04903325	-0.0490332499999988	9.83606995
2026-05-02 12:27:06.752	-0.10787315	-0.0686465499999988	9.87529655
2026-05-02 12:27:06.992	-0.0980665	-0.19613299999999878	9.9243298
2026-05-02 12:27:07.255	-0.04903325	-0.1372930999999988	9.7870367
2026-05-02 12:27:07.491	-0.06864655	-0.03922659999999879	9.83606995
2026-05-02 12:27:07.748	-0.12748645	-0.1470997499999988	9.8851032
2026-05-02 12:27:07.991	-0.1372931	-0.15690639999999878	9.89490985
2026-05-02 12:27:08.253	-0.0588399	-0.06864654999999881	9.75761675
2026-05-02 12:27:08.490	-0.0980665	-0.1176797999999988	9.87529655
2026-05-02 12:27:08.752	-0.12748645	-0.20593964999999878	9.9047165
2026-05-02 12:27:08.991	-0.1372931	-0.0980664999999988	9.80665
2026-05-02 12:27:09.252	-0.1176798	-0.0784531999999988	9.81645665
2026-05-02 12:27:09.491	-0.12748645	-0.17651969999999878	9.8458766
2026-05-02 12:27:09.755	-0.1176798	-0.1372930999999988	9.87529655
2026-05-02 12:27:09.991	-0.0980665	-0.1078731499999988	9.79684335
2026-05-02 12:27:10.252	-0.20593965	-0.0980664999999988	9.87529655
2026-05-02 12:27:10.490	-0.40207265000000003	-0.17651969999999878	9.85568325
2026-05-02 12:27:10.751	-0.392266	-0.3824593499999988	9.7478101
2026-05-02 12:27:10.992	-0.3726527	-0.16671304999999878	9.89490985
2026-05-02 12:27:11.251	-0.2157463	1.1973653485259817e-15	9.77723005
2026-05-02 12:27:11.491	-0.04903325	-0.1470997499999988	9.83606995
2026-05-02 12:27:11.751	-0.0196133	-0.21574629999999878	9.85568325
2026-05-02 12:27:11.993	-0.1372931	1.2009682532858392e-15	9.80665
2026-05-02 12:27:12.251	-0.10787315	-0.04903324999999878	9.9439431
2026-05-02 12:27:12.494	0.04903325	-0.2157462999999988	9.77723005
2026-05-02 12:27:12.753	0.00980665	-0.0882598499999988	9.83606995
2026-05-02 12:27:12.989	-0.28439285000000003	-0.009806649999998794	9.8458766
2026-05-02 12:27:13.250	-0.2745862	-0.14709974999999878	9.9047165
2026-05-02 12:27:13.492	-0.08825985	-0.1569063999999988	9.83606995
2026-05-02 12:27:13.753	0.0	-0.029419949999998803	9.77723005
2026-05-02 12:27:13.995	-0.1569064	-0.0784531999999988	9.85568325
2026-05-02 12:27:14.248	-0.20593965	-0.19613299999999878	9.89490985
2026-05-02 12:27:14.489	-0.06864655	-0.1078731499999988	9.81645665
2026-05-02 12:27:14.752	-0.0196133	-0.0882598499999988	9.77723005
2026-05-02 12:27:14.991	-0.196133	-0.08825984999999878	9.91452315
2026-05-02 12:27:15.251	-0.18632635	-0.17651969999999878	9.87529655
2026-05-02 12:27:15.491	-0.0196133	-0.1078731499999988	9.79684335
2026-05-02 12:27:15.752	-0.06864655	-0.0980664999999988	9.7870367
2026-05-02 12:27:15.991	-0.20593965	-0.05883989999999878	9.9243298
2026-05-02 12:27:16.251	-0.1569064	-0.16671304999999878	9.8458766
2026-05-02 12:27:16.497	-0.04903325	-0.1569063999999988	9.79684335
2026-05-02 12:27:16.750	-0.06864655	-0.35303939999999884	9.4339973
2026-05-02 12:27:16.991	-0.1372931	-0.1470997499999988	9.81645665
2026-05-02 12:27:17.251	-0.26477955	-0.08825984999999877	10.11065615
2026-05-02 12:27:17.492	-0.12748645	-0.13729309999999884	9.54187045
2026-05-02 12:27:17.749	-0.1569064	-0.17651969999999878	10.03220295
2026-05-02 12:27:17.991	-0.1372931	-0.009806649999998803	9.77723005
2026-05-02 12:27:18.251	-0.12748645	-0.1569063999999988	9.7478101
2026-05-02 12:27:18.490	-0.20593965	-0.19613299999999878	10.0223963
2026-05-02 12:27:18.757	-0.1372931	-0.039226599999998814	9.6693569
2026-05-02 12:27:18.991	-0.16671305	-0.10787314999999878	9.9635564
2026-05-02 12:27:19.248	-0.1176798	-0.16671304999999878	9.83606995
2026-05-02 12:27:19.493	-0.1372931	-0.1176797999999988	9.7478101
2026-05-02 12:27:19.751	-0.22555295	-0.13729309999999878	10.0223963
2026-05-02 12:27:19.991	-0.1569064	-0.05883989999999881	9.7478101
2026-05-02 12:27:20.248	-0.08825985	-0.17651969999999878	9.8262633
2026-05-02 12:27:20.489	-0.1176798	-0.1078731499999988	9.83606995
2026-05-02 12:27:20.751	-0.26477955	-0.0686465499999988	9.8654899
2026-05-02 12:27:20.991	-0.20593965	-0.18632634999999878	9.93413645
2026-05-02 12:27:21.252	0.0	-0.11767979999999882	9.6693569
2026-05-02 12:27:21.490	-0.18632635	-0.04903324999999879	9.9047165
2026-05-02 12:27:21.752	-0.26477955	-0.16671304999999878	9.93413645
2026-05-02 12:27:21.991	-0.10787315	-0.1569063999999988	9.75761675
2026-05-02 12:27:22.251	-0.0784532	-0.05883989999999879	9.8851032
2026-05-02 12:27:22.490	-0.16671305	-0.1274864499999988	9.79684335
2026-05-02 12:27:22.751	-0.22555295	-0.16671304999999878	9.8851032
2026-05-02 12:27:22.991	-0.1372931	-0.0784531999999988	9.8654899
2026-05-02 12:27:23.250	-0.06864655	-0.0980664999999988	9.75761675
2026-05-02 12:27:23.491	-0.20593965	-0.15690639999999878	9.91452315
2026-05-02 12:27:23.751	-0.1765197	-0.0980664999999988	9.81645665
2026-05-02 12:27:23.992	-0.12748645	-0.0784531999999988	9.8458766
2026-05-02 12:27:24.250	-0.14709975	-0.18632634999999878	9.89490985
2026-05-02 12:27:24.491	-0.14709975	-0.0882598499999988	9.75761675
2026-05-02 12:27:24.752	-0.1765197	-0.09806649999999878	9.9047165
2026-05-02 12:27:24.991	-0.1372931	-0.1470997499999988	9.87529655
2026-05-02 12:27:25.250	-0.1372931	-0.1274864499999988	9.7674234
2026-05-02 12:27:25.491	-0.1765197	-0.09806649999999878	9.89490985
2026-05-02 12:27:25.751	-0.1372931	-0.0882598499999988	9.83606995
2026-05-02 12:27:25.991	-0.12748645	-0.17651969999999878	9.81645665
2026-05-02 12:27:26.254	-0.18632635	-0.1078731499999988	9.8851032
2026-05-02 12:27:26.492	-0.14709975	-0.0784531999999988	9.83606995
2026-05-02 12:27:26.765	-0.0980665	-0.1667130499999988	9.79684335
2026-05-02 12:27:26.991	-0.1765197	-0.1078731499999988	9.87529655
2026-05-02 12:27:27.253	-0.20593965	-0.0686465499999988	9.87529655
2026-05-02 12:27:27.497	-0.1176798	-0.1470997499999988	9.81645665
2026-05-02 12:27:27.750	-0.0980665	-0.1765196999999988	9.7870367
2026-05-02 12:27:27.991	-0.1765197	-0.03922659999999879	9.87529655
2026-05-02 12:27:28.250	-0.22555295	-0.10787314999999878	9.89490985
2026-05-02 12:27:28.490	-0.1176798	-0.19613299999999878	9.83606995
2026-05-02 12:27:28.750	-0.0588399	-0.06864654999999881	9.75761675
2026-05-02 12:27:28.990	-0.2157463	-0.05883989999999879	9.8851032
2026-05-02 12:27:29.255	-0.2353596	-0.20593964999999878	9.91452315
2026-05-02 12:27:29.491	-0.0784532	-0.1078731499999988	9.79684335
2026-05-02 12:27:29.750	-0.0784532	-0.06864654999999881	9.77723005
2026-05-02 12:27:29.990	-0.2157463	-0.13729309999999878	9.91452315
2026-05-02 12:27:30.250	-0.2157463	-0.1176797999999988	9.8654899
2026-05-02 12:27:30.490	-0.0980665	-0.1372930999999988	9.81645665
2026-05-02 12:27:30.758	-0.08825985	-0.0882598499999988	9.80665
2026-05-02 12:27:31.003	-0.2157463	-0.1078731499999988	9.83606995
2026-05-02 12:27:31.249	-0.2157463	-0.15690639999999878	9.9635564
2026-05-02 12:27:31.490	-0.06864655	-0.1372930999999988	9.7281968
2026-05-02 12:27:31.752	-0.1372931	-0.0588398999999988	9.8262633
2026-05-02 12:27:31.990	-0.22555295	-0.12748644999999878	9.93413645
2026-05-02 12:27:32.251	-0.12748645	-0.1667130499999988	9.77723005
2026-05-02 12:27:32.490	-0.0980665	-0.0882598499999988	9.83606995
2026-05-02 12:27:32.752	-0.196133	-0.1078731499999988	9.85568325
2026-05-02 12:27:32.993	-0.18632635	-0.1078731499999988	9.8654899
2026-05-02 12:27:33.250	-0.10787315	-0.1372930999999988	9.85568325
2026-05-02 12:27:33.490	-0.10787315	-0.1372930999999988	9.7870367
2026-05-02 12:27:33.752	-0.2157463	-0.05883989999999879	9.8851032
2026-05-02 12:27:33.990	-0.196133	-0.16671304999999878	9.85568325
2026-05-02 12:27:34.249	-0.08825985	-0.1470997499999988	9.7870367
2026-05-02 12:27:34.490	-0.12748645	-0.029419949999998793	9.8654899
2026-05-02 12:27:34.753	-0.22555295	-0.1569063999999988	9.87529655
2026-05-02 12:27:34.990	-0.14709975	-0.1569063999999988	9.8262633
2026-05-02 12:27:35.251	-0.08825985	-0.0588398999999988	9.80665
2026-05-02 12:27:35.493	-0.196133	-0.1176797999999988	9.8851032
2026-05-02 12:27:35.751	-0.1765197	-0.1372930999999988	9.83606995
2026-05-02 12:27:35.990	-0.10787315	-0.1274864499999988	9.80665
2026-05-02 12:27:36.250	-0.1765197	-0.08825984999999878	9.9047165
2026-05-02 12:27:36.491	-0.1569064	-0.1372930999999988	9.79684335
2026-05-02 12:27:36.751	-0.1372931	-0.1176797999999988	9.83606995
2026-05-02 12:27:36.991	-0.1569064	-0.0980664999999988	9.8851032
2026-05-02 12:27:37.251	-0.14709975	-0.1372930999999988	9.8262633
2026-05-02 12:27:37.490	-0.14709975	-0.1078731499999988	9.8458766
2026-05-02 12:27:37.758	-0.12748645	-0.0882598499999988	9.8262633
2026-05-02 12:27:37.991	-0.1569064	-0.1470997499999988	9.8851032
2026-05-02 12:27:38.251	-0.1765197	-0.1176797999999988	9.87529655
2026-05-02 12:27:38.495	-0.14709975	-0.1078731499999988	9.75761675
2026-05-02 12:27:38.749	-0.12748645	-0.0980664999999988	9.8851032
2026-05-02 12:27:38.991	-0.1372931	-0.1372930999999988	9.83606995
2026-05-02 12:27:39.251	-0.18632635	-0.1176797999999988	9.85568325
2026-05-02 12:27:39.490	-0.16671305	-0.1078731499999988	9.8458766
2026-05-02 12:27:39.752	-0.0980665	-0.1176797999999988	9.7674234
2026-05-02 12:27:39.990	-0.1765197	-0.09806649999999878	9.9243298
2026-05-02 12:27:40.252	-0.18632635	-0.1176797999999988	9.85568325
2026-05-02 12:27:40.490	-0.10787315	-0.1274864499999988	9.7674234
2026-05-02 12:27:40.750	-0.1372931	-0.1274864499999988	9.8654899
2026-05-02 12:27:40.990	-0.18632635	-0.09806649999999878	9.89490985
2026-05-02 12:27:41.251	-0.1765197	-0.0980664999999988	9.8458766
2026-05-02 12:27:41.490	-0.0980665	-0.1470997499999988	9.77723005
2026-05-02 12:27:41.750	-0.14709975	-0.1372930999999988	9.87529655
2026-05-02 12:27:41.990	-0.18632635	-0.05883989999999879	9.87529655
2026-05-02 12:27:42.252	-0.16671305	-0.1569063999999988	9.80665
2026-05-02 12:27:42.488	-0.12748645	-0.1176797999999988	9.85568325
2026-05-02 12:27:42.748	-0.1176798	-0.0784531999999988	9.83606995
2026-05-02 12:27:42.995	-0.18632635	-0.1470997499999988	9.8851032
2026-05-02 12:27:43.252	-0.16671305	-0.0980664999999988	9.80665
2026-05-02 12:27:43.488	-0.1176798	-0.1372930999999988	9.83606995
2026-05-02 12:27:43.751	-0.1569064	-0.09806649999999878	9.89490985
2026-05-02 12:27:43.990	-0.1765197	-0.1176797999999988	9.80665
2026-05-02 12:27:44.250	-0.14709975	-0.1569063999999988	9.85568325
2026-05-02 12:27:44.490	-0.0980665	-0.1078731499999988	9.8262633
2026-05-02 12:27:44.750	-0.1569064	-0.0588398999999988	9.8458766
2026-05-02 12:27:44.991	-0.2157463	-0.16671304999999878	9.8851032
2026-05-02 12:27:45.250	-0.1372931	-0.1569063999999988	9.81645665
2026-05-02 12:27:45.491	-0.08825985	-0.0490332499999988	9.8262633
2026-05-02 12:27:45.750	-0.1569064	-0.1176797999999988	9.85568325
2026-05-02 12:27:45.990	-0.22555295	-0.1470997499999988	9.87529655
2026-05-02 12:27:46.251	-0.14709975	-0.1372930999999988	9.8458766
2026-05-02 12:27:46.490	-0.06864655	-0.0588398999999988	9.7870367
2026-05-02 12:27:46.754	-0.1569064	-0.1372930999999988	9.8654899
2026-05-02 12:27:46.990	-0.24516625	-0.1176797999999988	9.8851032
2026-05-02 12:27:47.250	-0.10787315	-0.1176797999999988	9.8262633
2026-05-02 12:27:47.491	-0.0588399	-0.1176797999999988	9.7870367
2026-05-02 12:27:47.751	-0.22555295	-0.0882598499999988	9.87529655
2026-05-02 12:27:47.991	-0.2353596	-0.13729309999999878	9.9047165
2026-05-02 12:27:48.261	-0.06864655	-0.1470997499999988	9.77723005
2026-05-02 12:27:48.491	-0.0588399	-0.1372930999999988	9.79684335
2026-05-02 12:27:48.750	-0.2549729	-0.019613299999998786	9.9243298
2026-05-02 12:27:48.990	-0.2157463	-0.16671304999999878	9.89490985
2026-05-02 12:27:49.258	-0.02941995	-0.2059396499999988	9.73800345
2026-05-02 12:27:49.491	-0.08825985	-0.019613299999998793	9.8458766
2026-05-02 12:27:49.750	-0.22555295	-0.1470997499999988	9.8262633
2026-05-02 12:27:49.990	-0.18632635	-0.15690639999999878	9.9047165
2026-05-02 12:27:50.250	-0.06864655	-0.0588398999999988	9.7870367
2026-05-02 12:27:50.491	-0.1176798	-0.16671304999999878	9.81645665
2026-05-02 12:27:50.750	-0.24516625	-0.09806649999999878	9.95374975
2026-05-02 12:27:50.988	-0.18632635	-0.0980664999999988	9.7870367
2026-05-02 12:27:51.252	-0.04903325	-0.1569063999999988	9.77723005
2026-05-02 12:27:51.490	-0.12748645	-0.1078731499999988	9.8851032
2026-05-02 12:27:51.754	-0.2353596	-0.0784531999999988	9.8458766
2026-05-02 12:27:51.990	-0.18632635	-0.16671304999999878	9.89490985
2026-05-02 12:27:52.251	-0.0588399	-0.1274864499999988	9.73800345
2026-05-02 12:27:52.491	-0.1569064	-0.0686465499999988	9.8851032
2026-05-02 12:27:52.752	-0.22555295	-0.14709974999999878	9.89490985
2026-05-02 12:27:52.991	-0.12748645	-0.1274864499999988	9.79684335
2026-05-02 12:27:53.249	-0.10787315	-0.0784531999999988	9.85568325
2026-05-02 12:27:53.490	-0.16671305	-0.1274864499999988	9.85568325
2026-05-02 12:27:53.747	-0.18632635	-0.1372930999999988	9.8458766
2026-05-02 12:27:53.993	-0.1372931	-0.1274864499999988	9.83606995
2026-05-02 12:27:54.254	-0.12748645	-0.0588398999999988	9.8458766
2026-05-02 12:27:54.488	-0.1765197	-0.1470997499999988	9.8262633
2026-05-02 12:27:54.751	-0.18632635	-0.18632634999999878	9.89490985
2026-05-02 12:27:54.987	-0.0784532	-0.0392265999999988	9.79684335
2026-05-02 12:27:55.247	-0.1569064	-0.1078731499999988	9.83606995
2026-05-02 12:27:55.489	-0.2353596	-0.18632634999999878	9.9047165
2026-05-02 12:27:55.748	-0.0980665	-0.0882598499999988	9.7674234
2026-05-02 12:27:55.988	-0.0784532	-0.0490332499999988	9.8262633
