[System]
Platform=SEANO USV
Start_Time=2026-03-26 16:18:09
Timezone=WIB

[Sensor]
Name=IMU

[Columns]
Timestamp(WIB)	AccX	AccY	AccZ

[Data]
2026-03-26 16:19:55.199	0.0	0.0	0.0
2026-03-26 16:19:55.456	0.0	0.0	0.0
2026-03-26 16:19:55.699	0.0	0.0	0.0
2026-03-26 16:19:55.956	-1.93191005	-0.1274864499999988	9.65955025
2026-03-26 16:19:56.195	-1.9221034000000001	-0.1372930999999988	9.65955025
2026-03-26 16:19:56.457	-1.9221034000000001	-0.1274864499999988	9.65955025
2026-03-26 16:19:56.697	-1.93191005	-0.1372930999999988	9.65955025
2026-03-26 16:19:56.955	-1.9221034000000001	-0.1372930999999988	9.65955025
2026-03-26 16:19:57.195	-1.93191005	-0.1274864499999988	9.65955025
2026-03-26 16:19:57.460	-1.9221034000000001	-0.1372930999999988	9.65955025
2026-03-26 16:19:57.696	-1.93191005	-0.1372930999999988	9.65955025
2026-03-26 16:19:57.955	-1.93191005	-0.1274864499999988	9.65955025
2026-03-26 16:19:58.199	-1.9221034000000001	-0.1372930999999988	9.65955025
2026-03-26 16:19:58.456	-1.9221034000000001	-0.1274864499999988	9.65955025
2026-03-26 16:19:58.699	-1.93191005	-0.1274864499999988	9.6693569
2026-03-26 16:19:58.969	-1.93191005	-0.1274864499999988	9.65955025
2026-03-26 16:19:59.196	-1.9221034000000001	-0.1372930999999988	9.6497436
2026-03-26 16:19:59.456	-1.9221034000000001	-0.1372930999999988	9.65955025
2026-03-26 16:19:59.695	-1.9221034000000001	-0.1372930999999988	9.65955025
2026-03-26 16:19:59.962	-1.93191005	-0.11767979999999882	9.6693569
2026-03-26 16:20:00.199	-1.9221034000000001	-0.1274864499999988	9.65955025
2026-03-26 16:20:00.456	-1.93191005	-0.11767979999999882	9.65955025
2026-03-26 16:20:00.695	-1.9221034000000001	-0.1372930999999988	9.65955025
2026-03-26 16:20:00.960	-1.93191005	-0.1274864499999988	9.6693569
2026-03-26 16:20:01.196	-1.9221034000000001	-0.1372930999999988	9.65955025
2026-03-26 16:20:01.456	-1.9221034000000001	-0.1470997499999988	9.65955025
2026-03-26 16:20:01.695	-1.9221034000000001	-0.1470997499999988	9.65955025
2026-03-26 16:20:01.954	-1.91229675	-0.1470997499999988	9.65955025
2026-03-26 16:20:02.195	-1.91229675	-0.1470997499999988	9.65955025
2026-03-26 16:20:02.454	-1.9221034000000001	-0.1372930999999988	9.65955025
2026-03-26 16:20:02.697	-1.9221034000000001	-0.1470997499999988	9.65955025
2026-03-26 16:20:02.955	-1.93191005	-0.1470997499999988	9.65955025
2026-03-26 16:20:03.194	-1.9221034000000001	-0.1470997499999988	9.6693569
2026-03-26 16:20:03.455	-1.9221034000000001	-0.1470997499999988	9.65955025
2026-03-26 16:20:03.697	-1.91229675	-0.1470997499999988	9.65955025
2026-03-26 16:20:03.955	-1.91229675	-0.1470997499999988	9.6497436
2026-03-26 16:20:04.196	-2.16726965	0.02941995000000119	9.69877685
2026-03-26 16:20:04.460	-1.95152335	-0.07845319999999882	9.67916355
2026-03-26 16:20:04.697	-1.99074995	-0.058839899999998814	9.6889702
2026-03-26 16:20:04.961	-1.8828768	-0.1765196999999988	9.6497436
2026-03-26 16:20:05.201	-1.9221034000000001	-0.1274864499999988	9.6693569
2026-03-26 16:20:05.460	-1.91229675	-0.1569063999999988	9.65955025
2026-03-26 16:20:05.695	-1.9221034000000001	-0.1372930999999988	9.65955025
2026-03-26 16:20:09.816	-1.9221034000000001	-0.1372930999999988	9.65955025
2026-03-26 16:20:12.280	-1.9024901	-0.1470997499999988	9.65955025
2026-03-26 16:20:13.625	-1.9221034000000001	-0.1569063999999988	9.6693569
2026-03-26 16:20:16.187	-1.91229675	-0.1569063999999988	9.65955025
2026-03-26 16:20:16.679	-1.89268345	-0.1765196999999988	9.6497436
2026-03-26 16:20:16.687	-1.9221034000000001	-0.1470997499999988	9.6693569
2026-03-26 16:20:16.693	-1.91229675	-0.1569063999999988	9.65955025
2026-03-26 16:20:16.699	-1.91229675	-0.1470997499999988	9.65955025
2026-03-26 16:20:16.722	-1.91229675	-0.1569063999999988	9.65955025
2026-03-26 16:20:16.762	-1.91229675	-0.1569063999999988	9.65955025
2026-03-26 16:20:16.770	-1.91229675	-0.1470997499999988	9.65955025
2026-03-26 16:20:16.792	-1.91229675	-0.1470997499999988	9.65955025
2026-03-26 16:20:16.800	-1.91229675	-0.1470997499999988	9.65955025
2026-03-26 16:20:16.809	-1.91229675	-0.1470997499999988	9.65955025
2026-03-26 16:20:16.822	-1.91229675	-0.1470997499999988	9.65955025
2026-03-26 16:20:16.835	-1.9221034000000001	-0.1470997499999988	9.6693569
2026-03-26 16:20:16.852	-1.91229675	-0.1470997499999988	9.65955025
2026-03-26 16:20:16.863	-1.91229675	-0.1470997499999988	9.65955025
2026-03-26 16:20:16.963	-1.9221034000000001	-0.1470997499999988	9.65955025
2026-03-26 16:20:17.195	-1.91229675	-0.1470997499999988	9.65955025
2026-03-26 16:20:17.460	-1.91229675	-0.1470997499999988	9.65955025
2026-03-26 16:20:17.701	-1.91229675	-0.1470997499999988	9.65955025
2026-03-26 16:20:17.960	-1.91229675	-0.1470997499999988	9.65955025
2026-03-26 16:20:18.197	-1.91229675	-0.1470997499999988	9.65955025
2026-03-26 16:20:18.455	-1.91229675	-0.1470997499999988	9.6693569
2026-03-26 16:20:18.696	-1.91229675	-0.1470997499999988	9.65955025
2026-03-26 16:20:18.955	-1.91229675	-0.1470997499999988	9.65955025
2026-03-26 16:20:19.196	-1.91229675	-0.1470997499999988	9.65955025
2026-03-26 16:20:19.469	-1.91229675	-0.1470997499999988	9.65955025
2026-03-26 16:20:19.708	-1.91229675	-0.1470997499999988	9.65955025
2026-03-26 16:20:19.972	-1.91229675	-0.1470997499999988	9.65955025
2026-03-26 16:20:20.210	-1.91229675	-0.1470997499999988	9.65955025
2026-03-26 16:20:20.459	-1.91229675	-0.1569063999999988	9.65955025
2026-03-26 16:20:20.712	-1.91229675	-0.1569063999999988	9.65955025
2026-03-26 16:20:20.956	-1.91229675	-0.1470997499999988	9.65955025
2026-03-26 16:20:21.197	-1.91229675	-0.1470997499999988	9.65955025
2026-03-26 16:20:21.454	-1.91229675	-0.1569063999999988	9.65955025
2026-03-26 16:20:21.697	-1.91229675	-0.1470997499999988	9.65955025
2026-03-26 16:20:21.956	-1.91229675	-0.1569063999999988	9.65955025
2026-03-26 16:20:22.194	-1.91229675	-0.1470997499999988	9.65955025
2026-03-26 16:20:22.457	-1.91229675	-0.1470997499999988	9.65955025
2026-03-26 16:20:22.695	-1.91229675	-0.1470997499999988	9.65955025
2026-03-26 16:20:22.954	-1.91229675	-0.1470997499999988	9.65955025
2026-03-26 16:20:23.195	-1.91229675	-0.1569063999999988	9.65955025
2026-03-26 16:20:23.457	-1.91229675	-0.1470997499999988	9.65955025
2026-03-26 16:20:23.703	-1.65732385	-0.29419949999999884	9.639936950000001
2026-03-26 16:20:23.955	-1.6867438	-0.45110589999999884	9.5320638
2026-03-26 16:20:24.198	-1.96133	-0.08825984999999882	9.67916355
2026-03-26 16:20:24.454	-1.96133	-0.07845319999999882	9.6889702
2026-03-26 16:20:24.694	-1.9417167	-0.10787314999999882	9.6693569
2026-03-26 16:20:24.954	-1.91229675	-0.1372930999999988	9.6693569
2026-03-26 16:20:25.195	-1.9221034000000001	-0.1274864499999988	9.6693569
2026-03-26 16:20:25.455	-1.91229675	-0.1470997499999988	9.65955025
2026-03-26 16:20:25.695	-1.9221034000000001	-0.1372930999999988	9.65955025
2026-03-26 16:20:25.964	-1.9221034000000001	-0.1470997499999988	9.6693569
2026-03-26 16:20:26.196	-1.91229675	-0.1470997499999988	9.65955025
2026-03-26 16:20:26.454	-1.91229675	-0.1470997499999988	9.6497436
2026-03-26 16:20:26.696	-1.91229675	-0.1667130499999988	9.6693569
2026-03-26 16:20:26.956	-1.9221034000000001	-0.1274864499999988	9.6693569
2026-03-26 16:20:27.196	-1.9221034000000001	-0.1470997499999988	9.65955025
2026-03-26 16:20:27.456	-1.9221034000000001	-0.1372930999999988	9.65955025
2026-03-26 16:20:27.698	-1.91229675	-0.1470997499999988	9.65955025
2026-03-26 16:20:27.983	-1.9221034000000001	-0.1470997499999988	9.65955025
2026-03-26 16:20:28.194	-1.91229675	-0.1569063999999988	9.65955025
2026-03-26 16:20:28.455	-1.9024901	-0.1569063999999988	9.6497436
2026-03-26 16:20:28.735	-1.9221034000000001	-0.1372930999999988	9.65955025
2026-03-26 16:20:28.954	-1.9221034000000001	-0.1372930999999988	9.65955025
2026-03-26 16:20:29.195	-1.91229675	-0.1569063999999988	9.6497436
2026-03-26 16:20:29.454	-1.91229675	-0.1569063999999988	9.65955025
2026-03-26 16:20:29.700	-1.91229675	-0.1470997499999988	9.65955025
2026-03-26 16:20:29.956	-1.91229675	-0.1470997499999988	9.65955025
2026-03-26 16:20:30.197	-1.91229675	-0.1470997499999988	9.65955025
2026-03-26 16:20:30.455	-1.91229675	-0.1470997499999988	9.65955025
2026-03-26 16:20:30.698	-1.91229675	-0.1470997499999988	9.65955025
2026-03-26 16:20:30.968	-1.91229675	-0.1470997499999988	9.65955025
2026-03-26 16:20:31.206	-1.91229675	-0.1470997499999988	9.65955025
2026-03-26 16:20:31.459	-1.9221034000000001	-0.1470997499999988	9.65955025
2026-03-26 16:20:31.707	-1.91229675	-0.1470997499999988	9.6693569
2026-03-26 16:20:31.966	-1.91229675	-0.1470997499999988	9.65955025
2026-03-26 16:20:32.196	-1.91229675	-0.1470997499999988	9.65955025
2026-03-26 16:20:32.457	-1.91229675	-0.1470997499999988	9.65955025
2026-03-26 16:20:32.697	-1.91229675	-0.1470997499999988	9.65955025
2026-03-26 16:20:32.961	-1.91229675	-0.1470997499999988	9.65955025
2026-03-26 16:20:33.194	-1.91229675	-0.1470997499999988	9.65955025
2026-03-26 16:20:33.455	-1.91229675	-0.1470997499999988	9.6693569
2026-03-26 16:20:33.695	-1.9221034000000001	-0.1470997499999988	9.65955025
2026-03-26 16:20:33.962	-1.9221034000000001	-0.1470997499999988	9.65955025
2026-03-26 16:20:34.195	-1.91229675	-0.1470997499999988	9.65955025
2026-03-26 16:20:34.627	-1.91229675	-0.1470997499999988	9.6693569
2026-03-26 16:20:34.696	-1.91229675	-0.1470997499999988	9.65955025
2026-03-26 16:20:34.954	-1.91229675	-0.1470997499999988	9.65955025
2026-03-26 16:20:35.197	-1.91229675	-0.1470997499999988	9.65955025
2026-03-26 16:20:35.454	-1.91229675	-0.1470997499999988	9.65955025
2026-03-26 16:20:35.698	-1.9221034000000001	-0.1470997499999988	9.65955025
2026-03-26 16:20:36.028	-1.9221034000000001	-0.1470997499999988	9.65955025
2026-03-26 16:20:36.195	-1.91229675	-0.1470997499999988	9.65955025
2026-03-26 16:20:36.456	-1.91229675	-0.1470997499999988	9.65955025
2026-03-26 16:20:36.696	-1.91229675	-0.1470997499999988	9.65955025
2026-03-26 16:20:36.954	-1.9221034000000001	-0.1470997499999988	9.65955025
2026-03-26 16:20:37.201	-1.91229675	-0.1470997499999988	9.65955025
2026-03-26 16:20:37.453	-1.91229675	-0.1470997499999988	9.65955025
2026-03-26 16:20:37.697	-1.91229675	-0.1470997499999988	9.65955025
2026-03-26 16:20:37.956	-1.91229675	-0.1470997499999988	9.65955025
2026-03-26 16:20:38.195	-1.91229675	-0.1470997499999988	9.65955025
2026-03-26 16:20:38.454	-1.9221034000000001	-0.1470997499999988	9.65955025
2026-03-26 16:20:38.697	-1.91229675	-0.1470997499999988	9.65955025
2026-03-26 16:20:38.955	-1.91229675	-0.1470997499999988	9.65955025
2026-03-26 16:20:39.204	-1.9221034000000001	-0.1470997499999988	9.65955025
2026-03-26 16:20:39.454	-1.91229675	-0.1470997499999988	9.65955025
2026-03-26 16:20:39.694	-1.91229675	-0.1470997499999988	9.65955025
2026-03-26 16:20:39.962	-1.91229675	-0.1470997499999988	9.65955025
2026-03-26 16:20:40.195	-1.91229675	-0.1470997499999988	9.65955025
2026-03-26 16:20:40.454	-1.91229675	-0.1470997499999988	9.65955025
2026-03-26 16:20:40.696	-1.9221034000000001	-0.1470997499999988	9.65955025
2026-03-26 16:20:40.959	-1.91229675	-0.1470997499999988	9.65955025
2026-03-26 16:20:41.195	-1.91229675	-0.1470997499999988	9.65955025
2026-03-26 16:20:41.455	-1.91229675	-0.1470997499999988	9.65955025
2026-03-26 16:20:41.697	-1.91229675	-0.1470997499999988	9.65955025
2026-03-26 16:20:41.956	-1.91229675	-0.1470997499999988	9.65955025
2026-03-26 16:20:42.195	-1.91229675	-0.1470997499999988	9.65955025
2026-03-26 16:20:42.457	-1.91229675	-0.1470997499999988	9.6693569
2026-03-26 16:20:42.696	-1.91229675	-0.1470997499999988	9.65955025
2026-03-26 16:20:42.955	-1.91229675	-0.1470997499999988	9.65955025
2026-03-26 16:20:43.195	-1.9221034000000001	-0.1470997499999988	9.65955025
2026-03-26 16:20:43.455	-1.91229675	-0.1470997499999988	9.65955025
2026-03-26 16:20:43.697	-1.91229675	-0.1470997499999988	9.65955025
2026-03-26 16:20:43.955	-1.91229675	-0.1470997499999988	9.65955025
2026-03-26 16:20:44.196	-1.91229675	-0.1470997499999988	9.65955025
2026-03-26 16:20:44.457	-1.91229675	-0.1470997499999988	9.65955025
2026-03-26 16:20:44.698	-1.91229675	-0.1470997499999988	9.65955025
2026-03-26 16:20:44.960	-1.91229675	-0.1470997499999988	9.65955025
2026-03-26 16:20:45.196	-1.91229675	-0.1470997499999988	9.65955025
2026-03-26 16:20:45.454	-1.91229675	-0.1372930999999988	9.65955025
2026-03-26 16:20:45.696	-1.9221034000000001	-0.1470997499999988	9.65955025
2026-03-26 16:20:45.958	-1.9221034000000001	-0.1470997499999988	9.6693569
2026-03-26 16:20:46.195	-1.91229675	-0.1372930999999988	9.65955025
2026-03-26 16:20:46.453	-1.9221034000000001	-0.1274864499999988	9.6693569
2026-03-26 16:20:46.695	-1.93191005	-0.11767979999999882	9.65955025
2026-03-26 16:20:46.956	-1.9221034000000001	-0.1372930999999988	9.65955025
2026-03-26 16:20:47.195	-1.9221034000000001	-0.1372930999999988	9.65955025
2026-03-26 16:20:47.454	-1.93191005	-0.1274864499999988	9.65955025
2026-03-26 16:20:47.696	-1.9221034000000001	-0.1274864499999988	9.65955025
2026-03-26 16:20:47.958	-1.93191005	-0.1274864499999988	9.65955025
2026-03-26 16:20:48.196	-1.9221034000000001	-0.1274864499999988	9.65955025
2026-03-26 16:20:48.454	-1.93191005	-0.11767979999999882	9.65955025
2026-03-26 16:20:48.696	-1.93191005	-0.1274864499999988	9.65955025
2026-03-26 16:20:48.955	-1.9221034000000001	-0.1274864499999988	9.65955025
2026-03-26 16:20:49.195	-1.9417167	-0.1274864499999988	9.65955025
2026-03-26 16:20:49.454	-1.9221034000000001	-0.1372930999999988	9.65955025
2026-03-26 16:20:49.695	-1.93191005	-0.11767979999999882	9.65955025
2026-03-26 16:20:49.954	-1.9221034000000001	-0.1274864499999988	9.65955025
2026-03-26 16:20:50.195	-1.9221034000000001	-0.1274864499999988	9.6497436
2026-03-26 16:20:50.456	-1.93191005	-0.1470997499999988	9.6497436
2026-03-26 16:20:50.694	-1.9417167	-0.10787314999999882	9.6693569
2026-03-26 16:20:50.955	-1.9417167	-0.1274864499999988	9.6497436
2026-03-26 16:20:51.197	-1.93191005	-0.1274864499999988	9.65955025
2026-03-26 16:20:51.455	-1.9417167	-0.1274864499999988	9.65955025
2026-03-26 16:20:51.696	-1.91229675	-0.1569063999999988	9.6497436
2026-03-26 16:20:51.968	-1.9221034000000001	-0.1470997499999988	9.65955025
2026-03-26 16:20:52.197	-1.9221034000000001	-0.1372930999999988	9.65955025
2026-03-26 16:20:52.456	-1.9221034000000001	-0.1372930999999988	9.65955025
2026-03-26 16:20:52.697	-1.9221034000000001	-0.1372930999999988	9.65955025
2026-03-26 16:20:52.955	-1.9221034000000001	-0.1372930999999988	9.65955025
2026-03-26 16:20:53.196	-1.9221034000000001	-0.1470997499999988	9.65955025
2026-03-26 16:20:53.458	-1.9221034000000001	-0.1372930999999988	9.65955025
2026-03-26 16:20:53.696	-1.9221034000000001	-0.1372930999999988	9.65955025
2026-03-26 16:20:53.954	-1.9221034000000001	-0.1372930999999988	9.65955025
2026-03-26 16:20:54.195	-1.9221034000000001	-0.1372930999999988	9.65955025
2026-03-26 16:20:54.453	-1.9221034000000001	-0.1372930999999988	9.65955025
2026-03-26 16:20:54.698	-1.9221034000000001	-0.1372930999999988	9.65955025
2026-03-26 16:20:54.954	-1.9221034000000001	-0.1470997499999988	9.65955025
2026-03-26 16:20:55.194	-1.9221034000000001	-0.1470997499999988	9.65955025
2026-03-26 16:20:55.454	-1.9221034000000001	-0.1372930999999988	9.65955025
2026-03-26 16:20:55.694	-1.91229675	-0.1470997499999988	9.65955025
2026-03-26 16:20:55.955	-1.91229675	-0.1372930999999988	9.65955025
2026-03-26 16:20:56.195	-1.9221034000000001	-0.1372930999999988	9.65955025
2026-03-26 16:20:56.454	-1.9221034000000001	-0.1372930999999988	9.65955025
2026-03-26 16:20:56.698	-1.9221034000000001	-0.1470997499999988	9.65955025
2026-03-26 16:20:56.965	-1.9221034000000001	-0.1470997499999988	9.65955025
2026-03-26 16:20:57.197	-1.9221034000000001	-0.1372930999999988	9.65955025
2026-03-26 16:20:57.454	-1.9221034000000001	-0.1470997499999988	9.65955025
2026-03-26 16:20:57.696	-1.9221034000000001	-0.1372930999999988	9.6693569
2026-03-26 16:20:57.959	-1.93191005	-0.1470997499999988	9.65955025
2026-03-26 16:20:58.194	-1.9221034000000001	-0.1470997499999988	9.6497436
2026-03-26 16:20:58.455	-1.9221034000000001	-0.1470997499999988	9.6497436
2026-03-26 16:20:58.694	-1.9221034000000001	-0.1372930999999988	9.65955025
2026-03-26 16:20:58.954	-1.91229675	-0.1274864499999988	9.65955025
2026-03-26 16:20:59.195	-1.9221034000000001	-0.1274864499999988	9.65955025
2026-03-26 16:20:59.455	-1.91229675	-0.1470997499999988	9.65955025
2026-03-26 16:20:59.695	-1.93191005	-0.1274864499999988	9.65955025
2026-03-26 16:20:59.954	-1.91229675	-0.1470997499999988	9.65955025
2026-03-26 16:21:00.194	-1.91229675	-0.1372930999999988	9.65955025
2026-03-26 16:21:00.456	-1.9221034000000001	-0.1274864499999988	9.65955025
2026-03-26 16:21:00.695	-1.91229675	-0.1470997499999988	9.65955025
2026-03-26 16:21:00.954	-1.93191005	-0.1274864499999988	9.65955025
2026-03-26 16:21:01.194	-1.9221034000000001	-0.1470997499999988	9.65955025
2026-03-26 16:21:01.454	-1.9221034000000001	-0.1372930999999988	9.65955025
2026-03-26 16:21:01.695	-1.9221034000000001	-0.1372930999999988	9.65955025
2026-03-26 16:21:01.955	-1.9221034000000001	-0.1372930999999988	9.65955025
2026-03-26 16:21:02.195	-1.9221034000000001	-0.1372930999999988	9.65955025
2026-03-26 16:21:02.454	-1.9221034000000001	-0.1470997499999988	9.65955025
2026-03-26 16:21:02.696	-1.93191005	-0.1372930999999988	9.65955025
2026-03-26 16:21:02.955	-1.93191005	-0.1274864499999988	9.65955025
2026-03-26 16:21:03.195	-1.9221034000000001	-0.1372930999999988	9.65955025
2026-03-26 16:21:03.454	-1.9221034000000001	-0.1372930999999988	9.65955025
2026-03-26 16:21:03.696	-1.9221034000000001	-0.1372930999999988	9.65955025
2026-03-26 16:21:03.955	-1.9221034000000001	-0.1372930999999988	9.65955025
2026-03-26 16:21:04.194	-1.9417167	-0.1274864499999988	9.6693569
2026-03-26 16:21:04.458	-1.93191005	-0.1274864499999988	9.65955025
2026-03-26 16:21:04.699	-1.93191005	-0.1274864499999988	9.65955025
2026-03-26 16:21:04.955	-1.9221034000000001	-0.1470997499999988	9.6497436
2026-03-26 16:21:05.194	-1.9221034000000001	-0.1274864499999988	9.65955025
2026-03-26 16:21:05.454	-1.9221034000000001	-0.1372930999999988	9.65955025
2026-03-26 16:21:05.695	-1.93191005	-0.1274864499999988	9.65955025
2026-03-26 16:21:05.953	-1.9221034000000001	-0.1274864499999988	9.65955025
2026-03-26 16:21:06.195	-1.93191005	-0.1274864499999988	9.65955025
2026-03-26 16:21:06.454	-1.9221034000000001	-0.1372930999999988	9.65955025
2026-03-26 16:21:06.694	-1.93191005	-0.1274864499999988	9.65955025
2026-03-26 16:21:06.956	-1.9221034000000001	-0.1372930999999988	9.65955025
2026-03-26 16:21:07.197	-1.93191005	-0.1274864499999988	9.65955025
2026-03-26 16:21:07.455	-1.9221034000000001	-0.1274864499999988	9.65955025
2026-03-26 16:21:07.694	-1.9221034000000001	-0.1274864499999988	9.65955025
2026-03-26 16:21:07.968	-1.9221034000000001	-0.1372930999999988	9.65955025
2026-03-26 16:21:08.196	-1.93191005	-0.1274864499999988	9.65955025
2026-03-26 16:21:08.457	-1.93191005	-0.1274864499999988	9.65955025
2026-03-26 16:21:08.695	-1.93191005	-0.1274864499999988	9.65955025
2026-03-26 16:21:08.956	-1.9417167	-0.1372930999999988	9.65955025
2026-03-26 16:21:09.196	-1.91229675	-0.1274864499999988	9.65955025
2026-03-26 16:21:09.454	-1.9221034000000001	-0.1372930999999988	9.65955025
2026-03-26 16:21:09.694	-1.9221034000000001	-0.1372930999999988	9.65955025
2026-03-26 16:21:09.956	-1.91229675	-0.1470997499999988	9.65955025
2026-03-26 16:21:10.194	-1.9417167	-0.10787314999999882	9.6693569
2026-03-26 16:21:10.455	-1.9417167	-0.1274864499999988	9.65955025
2026-03-26 16:21:10.695	-1.9221034000000001	-0.1372930999999988	9.6497436
2026-03-26 16:21:10.955	-1.93191005	-0.1274864499999988	9.65955025
2026-03-26 16:21:11.196	-1.93191005	-0.1372930999999988	9.65955025
2026-03-26 16:21:11.454	-1.9221034000000001	-0.1372930999999988	9.65955025
2026-03-26 16:21:11.696	-1.9221034000000001	-0.1372930999999988	9.65955025
2026-03-26 16:21:11.953	-1.91229675	-0.1470997499999988	9.65955025
2026-03-26 16:21:12.195	-1.9221034000000001	-0.1372930999999988	9.65955025
2026-03-26 16:21:12.454	-1.9221034000000001	-0.1372930999999988	9.65955025
2026-03-26 16:21:12.694	-1.93191005	-0.1274864499999988	9.65955025
2026-03-26 16:21:12.954	-1.9221034000000001	-0.1372930999999988	9.6497436
2026-03-26 16:21:13.208	-1.9221034000000001	-0.1372930999999988	9.65955025
2026-03-26 16:21:13.455	-1.9221034000000001	-0.1274864499999988	9.65955025
2026-03-26 16:21:13.697	-1.93191005	-0.1274864499999988	9.65955025
2026-03-26 16:21:13.956	-1.93191005	-0.1372930999999988	9.65955025
2026-03-26 16:21:14.202	-1.93191005	-0.1274864499999988	9.65955025
2026-03-26 16:21:14.454	-1.9221034000000001	-0.1274864499999988	9.6497436
2026-03-26 16:21:14.698	-1.93191005	-0.1274864499999988	9.65955025
2026-03-26 16:21:14.955	-1.93191005	-0.1274864499999988	9.65955025
2026-03-26 16:21:15.195	-1.9221034000000001	-0.1274864499999988	9.65955025
2026-03-26 16:21:15.455	-1.9221034000000001	-0.1372930999999988	9.65955025
2026-03-26 16:21:15.694	-1.93191005	-0.1274864499999988	9.65955025
2026-03-26 16:21:15.954	-1.93191005	-0.11767979999999882	9.65955025
2026-03-26 16:21:16.194	-1.93191005	-0.1274864499999988	9.65955025
2026-03-26 16:21:16.456	-1.9417167	-0.11767979999999882	9.65955025
2026-03-26 16:21:16.697	-1.93191005	-0.1274864499999988	9.65955025
2026-03-26 16:21:16.957	-1.93191005	-0.1274864499999988	9.65955025
2026-03-26 16:21:17.197	-1.9417167	-0.1274864499999988	9.65955025
2026-03-26 16:21:17.453	-1.93191005	-0.1274864499999988	9.65955025
2026-03-26 16:21:17.694	-1.9221034000000001	-0.1274864499999988	9.65955025
2026-03-26 16:21:17.960	-1.9221034000000001	-0.1372930999999988	9.65955025
2026-03-26 16:21:18.195	-1.93191005	-0.11767979999999882	9.65955025
2026-03-26 16:21:18.454	-1.9221034000000001	-0.1274864499999988	9.65955025
2026-03-26 16:21:18.696	-1.9221034000000001	-0.1274864499999988	9.65955025
2026-03-26 16:21:18.954	-1.9221034000000001	-0.11767979999999882	9.65955025
2026-03-26 16:21:19.194	-1.93191005	-0.1274864499999988	9.65955025
2026-03-26 16:21:19.455	-1.93191005	-0.1274864499999988	9.65955025
2026-03-26 16:21:19.697	-1.93191005	-0.1274864499999988	9.65955025
2026-03-26 16:21:19.960	-1.9221034000000001	-0.1372930999999988	9.65955025
2026-03-26 16:21:20.194	-1.93191005	-0.11767979999999882	9.65955025
2026-03-26 16:21:20.455	-1.9221034000000001	-0.1372930999999988	9.65955025
2026-03-26 16:21:20.697	-1.9221034000000001	-0.1274864499999988	9.65955025
2026-03-26 16:21:20.953	-1.93191005	-0.1274864499999988	9.65955025
2026-03-26 16:21:21.195	-1.93191005	-0.1274864499999988	9.65955025
2026-03-26 16:21:21.456	-1.93191005	-0.1274864499999988	9.65955025
2026-03-26 16:21:21.698	-1.93191005	-0.11767979999999882	9.65955025
2026-03-26 16:21:21.954	-1.93191005	-0.1274864499999988	9.65955025
2026-03-26 16:21:22.194	-1.9221034000000001	-0.1274864499999988	9.65955025
2026-03-26 16:21:22.455	-1.93191005	-0.1274864499999988	9.65955025
2026-03-26 16:21:22.696	-1.9221034000000001	-0.1274864499999988	9.6497436
2026-03-26 16:21:22.954	-1.93191005	-0.1274864499999988	9.6497436
2026-03-26 16:21:23.193	-1.93191005	-0.1274864499999988	9.65955025
2026-03-26 16:21:23.454	-1.93191005	-0.1274864499999988	9.6497436
2026-03-26 16:21:23.694	-1.9221034000000001	-0.1372930999999988	9.6497436
2026-03-26 16:21:23.955	-1.93191005	-0.1274864499999988	9.65955025
2026-03-26 16:21:24.194	-1.93191005	-0.1274864499999988	9.65955025
2026-03-26 16:21:24.455	-1.93191005	-0.1274864499999988	9.65955025
2026-03-26 16:21:24.696	-1.9221034000000001	-0.1274864499999988	9.65955025
2026-03-26 16:21:24.959	-1.93191005	-0.1372930999999988	9.6497436
2026-03-26 16:21:25.193	-1.93191005	-0.1274864499999988	9.65955025
2026-03-26 16:21:25.454	-1.9221034000000001	-0.1274864499999988	9.6497436
2026-03-26 16:21:25.694	-1.93191005	-0.1274864499999988	9.65955025
2026-03-26 16:21:25.955	-1.93191005	-0.1274864499999988	9.65955025
2026-03-26 16:21:26.194	-1.93191005	-0.1274864499999988	9.6497436
2026-03-26 16:21:26.455	-1.93191005	-0.1274864499999988	9.6497436
2026-03-26 16:21:26.694	-1.93191005	-0.1274864499999988	9.65955025
2026-03-26 16:21:26.953	-1.93191005	-0.09806649999999882	9.65955025
2026-03-26 16:21:27.198	-1.95152335	-0.08825984999999882	9.65955025
2026-03-26 16:21:27.457	-1.91229675	-0.1667130499999988	9.65955025
2026-03-26 16:21:27.695	-1.91229675	-0.1470997499999988	9.6497436
2026-03-26 16:21:27.973	-1.9417167	-0.11767979999999882	9.65955025
2026-03-26 16:21:28.195	-1.9221034000000001	-0.1372930999999988	9.65955025
2026-03-26 16:21:28.454	-1.9221034000000001	-0.1372930999999988	9.65955025
2026-03-26 16:21:28.695	-1.9221034000000001	-0.1372930999999988	9.65955025
2026-03-26 16:21:28.958	-1.9221034000000001	-0.1372930999999988	9.65955025
2026-03-26 16:21:29.196	-1.93191005	-0.1372930999999988	9.65955025
2026-03-26 16:21:29.453	-1.9221034000000001	-0.1372930999999988	9.65955025
2026-03-26 16:21:29.694	-1.9221034000000001	-0.1372930999999988	9.6497436
2026-03-26 16:21:29.967	-1.9221034000000001	-0.1372930999999988	9.65955025
2026-03-26 16:21:30.194	-1.9221034000000001	-0.1372930999999988	9.65955025
2026-03-26 16:21:30.457	-1.9221034000000001	-0.1372930999999988	9.6693569
2026-03-26 16:21:30.695	-1.9221034000000001	-0.1372930999999988	9.65955025
2026-03-26 16:21:30.955	-1.9221034000000001	-0.1372930999999988	9.65955025
2026-03-26 16:21:31.195	-1.9221034000000001	-0.1470997499999988	9.65955025
2026-03-26 16:21:31.453	-1.9221034000000001	-0.1372930999999988	9.65955025
2026-03-26 16:21:31.694	-1.9221034000000001	-0.1372930999999988	9.65955025
2026-03-26 16:21:31.954	-1.9221034000000001	-0.1372930999999988	9.65955025
2026-03-26 16:21:32.197	-1.9221034000000001	-0.1372930999999988	9.65955025
2026-03-26 16:21:32.453	-1.9221034000000001	-0.1372930999999988	9.65955025
2026-03-26 16:21:32.695	-1.9221034000000001	-0.1372930999999988	9.65955025
2026-03-26 16:21:32.956	-1.9221034000000001	-0.1372930999999988	9.65955025
2026-03-26 16:21:33.195	-1.9221034000000001	-0.1372930999999988	9.65955025
2026-03-26 16:21:33.456	-1.9221034000000001	-0.1372930999999988	9.65955025
2026-03-26 16:21:33.697	-1.9221034000000001	-0.1372930999999988	9.65955025
2026-03-26 16:21:33.958	-1.9221034000000001	-0.1372930999999988	9.65955025
2026-03-26 16:21:34.193	-1.9221034000000001	-0.1372930999999988	9.65955025
2026-03-26 16:21:34.455	-1.9221034000000001	-0.1372930999999988	9.65955025
2026-03-26 16:21:34.697	-1.9221034000000001	-0.1372930999999988	9.65955025
2026-03-26 16:21:34.957	-1.9221034000000001	-0.1372930999999988	9.65955025
2026-03-26 16:21:35.194	-1.9221034000000001	-0.1372930999999988	9.65955025
2026-03-26 16:21:35.454	-1.9221034000000001	-0.1372930999999988	9.65955025
2026-03-26 16:21:35.696	-1.9221034000000001	-0.1372930999999988	9.65955025
2026-03-26 16:21:35.953	-1.9221034000000001	-0.1372930999999988	9.65955025
2026-03-26 16:21:36.195	-1.9221034000000001	-0.1372930999999988	9.65955025
2026-03-26 16:21:36.457	-1.9221034000000001	-0.1470997499999988	9.65955025
2026-03-26 16:21:36.694	-1.9221034000000001	-0.1470997499999988	9.65955025
2026-03-26 16:21:36.955	-1.9221034000000001	-0.1372930999999988	9.65955025
2026-03-26 16:21:37.193	-1.9221034000000001	-0.1372930999999988	9.65955025
2026-03-26 16:21:37.453	-1.9221034000000001	-0.1372930999999988	9.65955025
2026-03-26 16:21:37.693	-1.9221034000000001	-0.1372930999999988	9.65955025
2026-03-26 16:21:37.971	-1.9221034000000001	-0.1372930999999988	9.65955025
2026-03-26 16:21:38.193	-1.9221034000000001	-0.1372930999999988	9.65955025
2026-03-26 16:21:38.454	-1.9221034000000001	-0.1372930999999988	9.65955025
2026-03-26 16:21:38.694	-1.9221034000000001	-0.1372930999999988	9.65955025
2026-03-26 16:21:38.953	-1.9221034000000001	-0.1372930999999988	9.65955025
2026-03-26 16:21:39.195	-1.9221034000000001	-0.1372930999999988	9.65955025
2026-03-26 16:21:39.454	-1.9221034000000001	-0.1470997499999988	9.65955025
2026-03-26 16:21:39.694	-1.9221034000000001	-0.1372930999999988	9.65955025
2026-03-26 16:21:39.956	-1.9221034000000001	-0.1372930999999988	9.65955025
2026-03-26 16:21:40.195	-1.9221034000000001	-0.1372930999999988	9.65955025
2026-03-26 16:21:40.453	-1.9221034000000001	-0.1372930999999988	9.65955025
2026-03-26 16:21:40.695	-1.93191005	-0.1372930999999988	9.65955025
2026-03-26 16:21:40.954	-1.9221034000000001	-0.1372930999999988	9.65955025
2026-03-26 16:21:41.194	-1.9221034000000001	-0.1372930999999988	9.65955025
2026-03-26 16:21:41.454	-1.9221034000000001	-0.1372930999999988	9.65955025
2026-03-26 16:21:41.695	-1.9221034000000001	-0.1372930999999988	9.65955025
2026-03-26 16:21:41.953	-1.93191005	-0.1372930999999988	9.65955025
2026-03-26 16:21:42.194	-1.9221034000000001	-0.1372930999999988	9.65955025
2026-03-26 16:21:42.453	-1.9221034000000001	-0.1372930999999988	9.65955025
2026-03-26 16:21:42.693	-1.9221034000000001	-0.1470997499999988	9.65955025
2026-03-26 16:21:42.958	-1.9221034000000001	-0.1372930999999988	9.65955025
2026-03-26 16:21:43.194	-1.9221034000000001	-0.1372930999999988	9.65955025
2026-03-26 16:21:43.453	-1.9221034000000001	-0.1372930999999988	9.65955025
2026-03-26 16:21:43.698	-1.9221034000000001	-0.1372930999999988	9.65955025
2026-03-26 16:21:43.963	-1.9221034000000001	-0.1372930999999988	9.65955025
2026-03-26 16:21:44.194	-1.9221034000000001	-0.1372930999999988	9.65955025
2026-03-26 16:21:44.453	-1.9221034000000001	-0.1372930999999988	9.6497436
2026-03-26 16:21:44.694	-1.9221034000000001	-0.1372930999999988	9.65955025
2026-03-26 16:21:44.954	-1.9221034000000001	-0.1372930999999988	9.65955025
2026-03-26 16:21:45.193	-1.9221034000000001	-0.1372930999999988	9.65955025
2026-03-26 16:21:45.454	-1.9221034000000001	-0.1372930999999988	9.65955025
2026-03-26 16:21:45.696	-1.9221034000000001	-0.1372930999999988	9.65955025
2026-03-26 16:21:45.954	-1.9221034000000001	-0.1470997499999988	9.65955025
2026-03-26 16:21:46.193	-1.91229675	-0.1372930999999988	9.6693569
2026-03-26 16:21:46.455	-1.9221034000000001	-0.1372930999999988	9.65955025
2026-03-26 16:21:46.695	-1.9221034000000001	-0.1372930999999988	9.65955025
2026-03-26 16:21:46.953	-1.9221034000000001	-0.1372930999999988	9.65955025
2026-03-26 16:21:47.194	-1.9221034000000001	-0.1470997499999988	9.65955025
2026-03-26 16:21:47.455	-1.9221034000000001	-0.1372930999999988	9.65955025
2026-03-26 16:21:47.694	-1.9221034000000001	-0.1470997499999988	9.65955025
2026-03-26 16:21:47.953	-1.9221034000000001	-0.1372930999999988	9.65955025
2026-03-26 16:21:48.193	-1.9221034000000001	-0.1372930999999988	9.65955025
2026-03-26 16:21:48.454	-1.93191005	-0.1470997499999988	9.65955025
2026-03-26 16:21:48.694	-1.9221034000000001	-0.1470997499999988	9.65955025
2026-03-26 16:21:48.956	-1.9221034000000001	-0.1372930999999988	9.65955025
2026-03-26 16:21:49.194	-1.9221034000000001	-0.1372930999999988	9.65955025
2026-03-26 16:21:49.457	-1.9221034000000001	-0.1372930999999988	9.65955025
2026-03-26 16:21:49.696	-1.9221034000000001	-0.1372930999999988	9.65955025
2026-03-26 16:21:49.959	-1.9221034000000001	-0.1372930999999988	9.6497436
2026-03-26 16:21:50.193	-1.9221034000000001	-0.1372930999999988	9.65955025
2026-03-26 16:21:50.454	-1.9221034000000001	-0.1372930999999988	9.6497436
2026-03-26 16:21:50.694	-1.9221034000000001	-0.1372930999999988	9.65955025
2026-03-26 16:21:50.955	-1.9221034000000001	-0.1372930999999988	9.65955025
2026-03-26 16:21:51.193	-1.9221034000000001	-0.1372930999999988	9.65955025
2026-03-26 16:21:51.454	-1.9221034000000001	-0.1372930999999988	9.65955025
2026-03-26 16:21:51.699	-1.9221034000000001	-0.1470997499999988	9.65955025
2026-03-26 16:21:51.954	-1.9221034000000001	-0.1470997499999988	9.65955025
2026-03-26 16:21:52.195	-1.9221034000000001	-0.1372930999999988	9.65955025
2026-03-26 16:21:52.455	-1.9221034000000001	-0.1372930999999988	9.65955025
2026-03-26 16:21:52.693	-1.9221034000000001	-0.1372930999999988	9.65955025
2026-03-26 16:21:52.956	-1.9221034000000001	-0.1372930999999988	9.65955025
2026-03-26 16:21:53.193	-1.9221034000000001	-0.1372930999999988	9.65955025
2026-03-26 16:21:53.453	-1.9221034000000001	-0.1470997499999988	9.6497436
2026-03-26 16:21:53.697	-1.9417167	-0.07845319999999882	9.6693569
2026-03-26 16:21:53.953	-1.9221034000000001	-0.1470997499999988	9.65955025
2026-03-26 16:21:54.194	-1.95152335	-0.1961329999999988	9.65955025
2026-03-26 16:21:54.453	-1.95152335	-0.11767979999999882	9.65955025
2026-03-26 16:21:54.698	-1.97113665	-0.11767979999999882	9.6693569
2026-03-26 16:21:54.958	-1.8828768	-0.1863263499999988	9.6497436
2026-03-26 16:21:55.195	-1.9221034000000001	-0.1372930999999988	9.65955025
2026-03-26 16:21:55.453	-1.93191005	-0.11767979999999882	9.65955025
2026-03-26 16:21:55.694	-1.9221034000000001	-0.1372930999999988	9.65955025
2026-03-26 16:21:55.957	-1.9221034000000001	-0.1372930999999988	9.65955025
2026-03-26 16:21:56.195	-1.9221034000000001	-0.1372930999999988	9.65955025
2026-03-26 16:21:56.455	-1.9221034000000001	-0.1470997499999988	9.65955025
2026-03-26 16:21:56.696	-1.9221034000000001	-0.1372930999999988	9.65955025
2026-03-26 16:21:56.954	-1.9221034000000001	-0.1470997499999988	9.65955025
2026-03-26 16:21:57.193	-1.9221034000000001	-0.1372930999999988	9.65955025
2026-03-26 16:21:57.457	-1.9221034000000001	-0.1372930999999988	9.65955025
2026-03-26 16:21:57.695	-1.9221034000000001	-0.1372930999999988	9.65955025
2026-03-26 16:21:57.954	-1.9221034000000001	-0.1470997499999988	9.65955025
2026-03-26 16:21:58.195	-1.9221034000000001	-0.1372930999999988	9.65955025
2026-03-26 16:21:58.456	-1.9221034000000001	-0.1372930999999988	9.65955025
2026-03-26 16:21:58.694	-1.9221034000000001	-0.1470997499999988	9.65955025
2026-03-26 16:21:58.953	-1.9221034000000001	-0.1470997499999988	9.65955025
2026-03-26 16:21:59.196	-1.9221034000000001	-0.1372930999999988	9.65955025
2026-03-26 16:21:59.455	-1.9221034000000001	-0.1372930999999988	9.65955025
2026-03-26 16:21:59.697	-1.9221034000000001	-0.1372930999999988	9.65955025
2026-03-26 16:21:59.953	-1.9221034000000001	-0.1470997499999988	9.65955025
2026-03-26 16:22:00.194	-1.9221034000000001	-0.1372930999999988	9.65955025
2026-03-26 16:22:00.454	-1.9221034000000001	-0.1372930999999988	9.65955025
2026-03-26 16:22:00.693	-1.9221034000000001	-0.1372930999999988	9.65955025
2026-03-26 16:22:00.964	-1.9221034000000001	-0.1372930999999988	9.65955025
2026-03-26 16:22:01.193	-1.93191005	-0.1372930999999988	9.65955025
2026-03-26 16:22:01.466	-1.9221034000000001	-0.1470997499999988	9.65955025
2026-03-26 16:22:01.697	-1.9221034000000001	-0.1372930999999988	9.65955025
2026-03-26 16:22:01.964	-1.9221034000000001	-0.1372930999999988	9.65955025
2026-03-26 16:22:02.193	-1.9221034000000001	-0.1372930999999988	9.65955025
2026-03-26 16:22:02.455	-1.9221034000000001	-0.1470997499999988	9.65955025
2026-03-26 16:22:02.695	-1.9221034000000001	-0.1372930999999988	9.65955025
2026-03-26 16:22:02.953	-1.9221034000000001	-0.1372930999999988	9.65955025
2026-03-26 16:22:03.195	-1.9221034000000001	-0.1470997499999988	9.65955025
2026-03-26 16:22:03.458	-1.9221034000000001	-0.1470997499999988	9.65955025
2026-03-26 16:22:03.695	-1.9221034000000001	-0.1372930999999988	9.65955025
2026-03-26 16:22:03.952	-1.9221034000000001	-0.1470997499999988	9.65955025
2026-03-26 16:22:04.195	-1.9221034000000001	-0.1372930999999988	9.65955025
2026-03-26 16:22:04.453	-1.9221034000000001	-0.1372930999999988	9.65955025
2026-03-26 16:22:04.702	-1.9221034000000001	-0.1372930999999988	9.65955025
2026-03-26 16:22:04.954	-1.9221034000000001	-0.1372930999999988	9.65955025
2026-03-26 16:22:05.193	-1.9221034000000001	-0.1372930999999988	9.65955025
2026-03-26 16:22:05.453	-1.9221034000000001	-0.1372930999999988	9.65955025
2026-03-26 16:22:05.696	-1.9221034000000001	-0.1372930999999988	9.6693569
2026-03-26 16:22:05.958	-1.9221034000000001	-0.1372930999999988	9.65955025
2026-03-26 16:22:06.196	-1.9221034000000001	-0.1372930999999988	9.65955025
2026-03-26 16:22:06.454	-1.9221034000000001	-0.1372930999999988	9.65955025
2026-03-26 16:22:06.700	-1.9221034000000001	-0.1372930999999988	9.65955025
2026-03-26 16:22:06.961	-1.9221034000000001	-0.1372930999999988	9.65955025
2026-03-26 16:22:07.194	-1.9221034000000001	-0.1372930999999988	9.65955025
2026-03-26 16:22:07.453	-1.9221034000000001	-0.1372930999999988	9.65955025
2026-03-26 16:22:07.694	-1.9221034000000001	-0.1372930999999988	9.65955025
2026-03-26 16:22:07.959	-1.9221034000000001	-0.1372930999999988	9.65955025
2026-03-26 16:22:08.194	-1.9221034000000001	-0.1372930999999988	9.65955025
2026-03-26 16:22:08.453	-1.9221034000000001	-0.1372930999999988	9.65955025
2026-03-26 16:22:08.694	-1.9221034000000001	-0.1372930999999988	9.65955025
2026-03-26 16:22:08.954	-1.9221034000000001	-0.1372930999999988	9.65955025
2026-03-26 16:22:09.196	-1.9221034000000001	-0.1372930999999988	9.65955025
2026-03-26 16:22:09.453	-1.9221034000000001	-0.1372930999999988	9.65955025
2026-03-26 16:22:09.701	-1.9221034000000001	-0.1372930999999988	9.65955025
2026-03-26 16:22:09.953	-1.9221034000000001	-0.1372930999999988	9.65955025
2026-03-26 16:22:10.193	-1.9221034000000001	-0.1372930999999988	9.65955025
2026-03-26 16:22:10.458	-1.9221034000000001	-0.1372930999999988	9.65955025
2026-03-26 16:22:10.694	-1.9221034000000001	-0.1372930999999988	9.65955025
2026-03-26 16:22:10.958	-1.9221034000000001	-0.1372930999999988	9.65955025
2026-03-26 16:22:11.193	-1.9221034000000001	-0.1372930999999988	9.65955025
2026-03-26 16:22:11.453	-1.9221034000000001	-0.1372930999999988	9.6497436
2026-03-26 16:22:11.695	-1.9221034000000001	-0.1372930999999988	9.65955025
2026-03-26 16:22:11.952	-1.9221034000000001	-0.1470997499999988	9.65955025
2026-03-26 16:22:12.193	-1.9221034000000001	-0.1372930999999988	9.65955025
2026-03-26 16:22:12.455	-1.9221034000000001	-0.1372930999999988	9.65955025
2026-03-26 16:22:12.694	-1.9221034000000001	-0.1372930999999988	9.65955025
2026-03-26 16:22:12.953	-1.9221034000000001	-0.1372930999999988	9.65955025
2026-03-26 16:22:13.192	-1.9221034000000001	-0.1372930999999988	9.65955025
2026-03-26 16:22:13.453	-1.9221034000000001	-0.1372930999999988	9.65955025
2026-03-26 16:22:13.693	-1.9221034000000001	-0.1470997499999988	9.65955025
2026-03-26 16:22:13.953	-1.9221034000000001	-0.1372930999999988	9.65955025
2026-03-26 16:22:14.196	-1.9221034000000001	-0.1372930999999988	9.65955025
2026-03-26 16:22:14.453	-1.9221034000000001	-0.1372930999999988	9.65955025
2026-03-26 16:22:14.699	-1.9221034000000001	-0.1372930999999988	9.65955025
2026-03-26 16:22:14.955	-1.9221034000000001	-0.1372930999999988	9.65955025
2026-03-26 16:22:15.196	-1.9221034000000001	-0.1372930999999988	9.65955025
2026-03-26 16:22:15.454	-1.9221034000000001	-0.1372930999999988	9.65955025
2026-03-26 16:22:15.693	-1.9221034000000001	-0.1372930999999988	9.65955025
2026-03-26 16:22:15.952	-1.9221034000000001	-0.1372930999999988	9.65955025
2026-03-26 16:22:16.195	-1.9221034000000001	-0.1372930999999988	9.65955025
2026-03-26 16:22:16.453	-1.9221034000000001	-0.1372930999999988	9.65955025
2026-03-26 16:22:16.694	-1.9221034000000001	-0.1372930999999988	9.65955025
2026-03-26 16:22:16.963	-1.9221034000000001	-0.1372930999999988	9.65955025
2026-03-26 16:22:17.193	-1.9221034000000001	-0.1372930999999988	9.65955025
2026-03-26 16:22:17.453	-1.9221034000000001	-0.1372930999999988	9.65955025
2026-03-26 16:22:17.695	-1.9221034000000001	-0.1372930999999988	9.65955025
2026-03-26 16:22:17.953	-1.9221034000000001	-0.1372930999999988	9.65955025
2026-03-26 16:22:18.194	-1.9221034000000001	-0.1372930999999988	9.65955025
2026-03-26 16:22:18.457	-1.9221034000000001	-0.1372930999999988	9.65955025
2026-03-26 16:22:18.697	-1.9221034000000001	-0.1372930999999988	9.65955025
2026-03-26 16:22:18.953	-1.9221034000000001	-0.1372930999999988	9.65955025
2026-03-26 16:22:19.193	-1.9221034000000001	-0.1372930999999988	9.65955025
2026-03-26 16:22:19.455	-1.9221034000000001	-0.1372930999999988	9.65955025
2026-03-26 16:22:19.695	-1.9221034000000001	-0.1372930999999988	9.65955025
2026-03-26 16:24:33.372	0.0	0.0	0.0
2026-03-26 16:24:33.614	0.0	0.0	0.0
2026-03-26 16:24:33.877	-1.9221034000000001	-0.1372930999999988	9.6497436
2026-03-26 16:24:34.111	-1.93191005	-0.1470997499999988	9.65955025
2026-03-26 16:24:34.375	-1.9221034000000001	-0.1667130499999988	9.6497436
2026-03-26 16:24:34.617	-1.93191005	-0.09806649999999882	9.65955025
2026-03-26 16:24:34.872	-1.95152335	-0.1274864499999988	9.65955025
2026-03-26 16:24:35.112	-1.9221034000000001	-0.11767979999999882	9.6497436
2026-03-26 16:24:35.376	-1.9417167	-0.09806649999999882	9.65955025
2026-03-26 16:24:35.614	-1.96133	-0.10787314999999882	9.6497436
2026-03-26 16:24:35.877	-1.8828768	-0.1372930999999988	9.6497436
2026-03-26 16:24:36.112	-1.9024901	-0.1569063999999988	9.65955025
2026-03-26 16:24:36.372	-1.91229675	-0.1569063999999988	9.6497436
2026-03-26 16:24:36.613	-1.95152335	-0.1274864499999988	9.6497436
2026-03-26 16:24:36.885	-1.9417167	-0.11767979999999882	9.65955025
2026-03-26 16:24:37.112	-1.9417167	-0.1274864499999988	9.6497436
2026-03-26 16:24:37.372	-1.93191005	-0.11767979999999882	9.65955025
2026-03-26 16:24:37.613	-1.9417167	-0.07845319999999882	9.65955025
2026-03-26 16:24:37.874	-1.96133	-0.06864654999999882	9.65955025
2026-03-26 16:24:38.111	-1.93191005	-0.10787314999999882	9.65955025
2026-03-26 16:24:38.375	-1.9417167	-0.10787314999999882	9.65955025
2026-03-26 16:24:38.615	-1.9417167	-0.11767979999999882	9.65955025
2026-03-26 16:24:38.881	-1.9417167	-0.10787314999999882	9.65955025
2026-03-26 16:24:39.112	-1.9417167	-0.10787314999999882	9.65955025
2026-03-26 16:24:39.377	-1.9417167	-0.10787314999999882	9.65955025
2026-03-26 16:24:39.612	-1.93191005	-0.11767979999999882	9.65955025
2026-03-26 16:24:39.873	-1.93191005	-0.1470997499999988	9.65955025
2026-03-26 16:24:40.111	-1.9417167	-0.1274864499999988	9.6497436
2026-03-26 16:24:40.373	-1.9221034000000001	-0.11767979999999882	9.65955025
2026-03-26 16:24:40.613	-1.96133	-0.11767979999999882	9.639936950000001
2026-03-26 16:24:40.873	-1.9417167	-0.11767979999999882	9.65955025
2026-03-26 16:24:41.111	-1.9417167	-0.11767979999999882	9.65955025
2026-03-26 16:24:41.374	-1.9417167	-0.11767979999999882	9.6497436
2026-03-26 16:24:41.614	-1.9417167	-0.11767979999999882	9.65955025
2026-03-26 16:24:41.874	-1.93191005	-0.1372930999999988	9.6497436
2026-03-26 16:24:42.112	-1.95152335	-0.10787314999999882	9.65955025
2026-03-26 16:24:42.378	-1.95152335	-0.09806649999999882	9.6497436
2026-03-26 16:24:42.615	-1.95152335	-0.10787314999999882	9.65955025
2026-03-26 16:24:42.872	-1.9221034000000001	-0.11767979999999882	9.6497436
2026-03-26 16:24:43.111	-1.95152335	-0.10787314999999882	9.65955025
2026-03-26 16:24:43.373	-1.9417167	-0.1274864499999988	9.6497436
2026-03-26 16:24:43.614	-1.93191005	-0.1274864499999988	9.6497436
2026-03-26 16:24:47.166	-1.9417167	-0.10787314999999882	9.6497436
2026-03-26 16:24:49.946	-1.95152335	-0.10787314999999882	9.65955025
2026-03-26 16:24:50.653	-1.9417167	-0.10787314999999882	9.6497436
2026-03-26 16:24:51.655	-1.9417167	-0.11767979999999882	9.6497436
2026-03-26 16:24:51.862	-1.95152335	-0.09806649999999882	9.65955025
2026-03-26 16:24:51.868	-1.9417167	-0.10787314999999882	9.6497436
2026-03-26 16:24:51.878	-1.9417167	-0.09806649999999882	9.65955025
2026-03-26 16:24:51.882	-1.9417167	-0.10787314999999882	9.65955025
2026-03-26 16:24:51.884	-1.9417167	-0.10787314999999882	9.6497436
2026-03-26 16:24:51.891	-1.9417167	-0.11767979999999882	9.6497436
2026-03-26 16:24:51.895	-1.9417167	-0.1274864499999988	9.65955025
2026-03-26 16:24:51.911	-1.95152335	-0.10787314999999882	9.65955025
2026-03-26 16:24:51.915	-1.96133	-0.08825984999999882	9.65955025
2026-03-26 16:24:51.919	-1.93191005	-0.10787314999999882	9.65955025
2026-03-26 16:24:51.945	-1.9417167	-0.10787314999999882	9.65955025
2026-03-26 16:24:51.950	-1.95152335	-0.10787314999999882	9.65955025
2026-03-26 16:24:51.954	-1.9417167	-0.11767979999999882	9.65955025
2026-03-26 16:24:51.959	-1.9417167	-0.1274864499999988	9.65955025
2026-03-26 16:24:51.961	-1.9417167	-0.11767979999999882	9.65955025
2026-03-26 16:24:52.116	-1.93191005	-0.11767979999999882	9.65955025
2026-03-26 16:24:52.372	-1.9417167	-0.09806649999999882	9.65955025
2026-03-26 16:24:52.614	-1.9417167	-0.11767979999999882	9.65955025
2026-03-26 16:24:52.873	-1.93191005	-0.1274864499999988	9.6497436
2026-03-26 16:24:53.113	-1.9417167	-0.11767979999999882	9.65955025
2026-03-26 16:24:53.372	-1.9417167	-0.11767979999999882	9.65955025
2026-03-26 16:24:53.615	-1.93191005	-0.1274864499999988	9.65955025
2026-03-26 16:24:53.873	-1.95152335	-0.11767979999999882	9.65955025
2026-03-26 16:24:54.114	-1.9417167	-0.10787314999999882	9.6497436
2026-03-26 16:24:54.373	-1.9417167	-0.10787314999999882	9.65955025
2026-03-26 16:24:54.612	-1.9417167	-0.11767979999999882	9.65955025
2026-03-26 16:24:54.872	-1.93191005	-0.11767979999999882	9.65955025
2026-03-26 16:24:55.115	-1.93191005	-0.11767979999999882	9.6497436
2026-03-26 16:24:55.372	-1.9417167	-0.10787314999999882	9.65955025
2026-03-26 16:24:55.613	-1.9417167	-0.11767979999999882	9.65955025
2026-03-26 16:24:55.874	-1.9417167	-0.11767979999999882	9.65955025
2026-03-26 16:24:56.116	-1.93191005	-0.1274864499999988	9.65955025
2026-03-26 16:24:56.371	-1.93191005	-0.1274864499999988	9.6497436
2026-03-26 16:24:56.615	-1.95152335	-0.10787314999999882	9.65955025
2026-03-26 16:24:56.872	-1.9221034000000001	-0.1274864499999988	9.6497436
2026-03-26 16:24:57.112	-1.93191005	-0.11767979999999882	9.6497436
2026-03-26 16:24:57.375	-1.95152335	-0.08825984999999882	9.65955025
2026-03-26 16:24:57.611	-1.93191005	-0.1372930999999988	9.6497436
2026-03-26 16:24:57.872	-1.93191005	-0.11767979999999882	9.6497436
2026-03-26 16:24:58.111	-1.93191005	-0.11767979999999882	9.6497436
2026-03-26 16:24:58.372	-1.9417167	-0.11767979999999882	9.65955025
2026-03-26 16:24:58.611	-1.9417167	-0.11767979999999882	9.6497436
2026-03-26 16:24:58.876	-1.93191005	-0.11767979999999882	9.65955025
2026-03-26 16:24:59.115	-1.9417167	-0.11767979999999882	9.6497436
2026-03-26 16:24:59.373	-1.93191005	-0.11767979999999882	9.65955025
2026-03-26 16:24:59.612	-1.9417167	-0.11767979999999882	9.6497436
2026-03-26 16:24:59.872	-1.93191005	-0.11767979999999882	9.65955025
2026-03-26 16:25:00.111	-1.9417167	-0.11767979999999882	9.65955025
2026-03-26 16:25:00.372	-1.93191005	-0.1274864499999988	9.6497436
2026-03-26 16:25:00.611	-1.9417167	-0.11767979999999882	9.65955025
2026-03-26 16:25:00.875	-1.9417167	-0.11767979999999882	9.65955025
2026-03-26 16:25:01.113	-1.9417167	-0.11767979999999882	9.6497436
2026-03-26 16:25:01.379	-1.9417167	-0.1274864499999988	9.6497436
2026-03-26 16:25:01.613	-1.93191005	-0.11767979999999882	9.6497436
2026-03-26 16:25:01.871	-1.93191005	-0.1372930999999988	9.639936950000001
2026-03-26 16:25:02.112	-1.93191005	-0.11767979999999882	9.65955025
2026-03-26 16:25:02.374	-1.9417167	-0.11767979999999882	9.65955025
2026-03-26 16:25:02.612	-1.9417167	-0.10787314999999882	9.65955025
2026-03-26 16:25:02.879	-1.9417167	-0.10787314999999882	9.65955025
2026-03-26 16:25:03.111	-1.9417167	-0.11767979999999882	9.6497436
2026-03-26 16:25:03.372	-1.9417167	-0.11767979999999882	9.65955025
2026-03-26 16:25:03.612	-1.9417167	-0.1274864499999988	9.6497436
2026-03-26 16:25:03.873	-1.9417167	-0.11767979999999882	9.65955025
2026-03-26 16:25:04.112	-1.93191005	-0.10787314999999882	9.65955025
2026-03-26 16:25:04.371	-1.93191005	-0.11767979999999882	9.65955025
2026-03-26 16:25:04.616	-1.9417167	-0.10787314999999882	9.65955025
2026-03-26 16:25:04.874	-1.9221034000000001	-0.11767979999999882	9.6693569
2026-03-26 16:25:05.112	-1.9417167	-0.11767979999999882	9.6497436
2026-03-26 16:25:05.386	-1.93191005	-0.1274864499999988	9.65955025
2026-03-26 16:25:05.618	-1.9417167	-0.10787314999999882	9.65955025
2026-03-26 16:25:05.873	-1.9417167	-0.11767979999999882	9.65955025
2026-03-26 16:25:06.113	-1.95152335	-0.10787314999999882	9.65955025
2026-03-26 16:25:06.372	-1.9417167	-0.11767979999999882	9.65955025
2026-03-26 16:25:06.616	-1.9417167	-0.11767979999999882	9.65955025
2026-03-26 16:25:06.873	-1.93191005	-0.10787314999999882	9.6497436
2026-03-26 16:25:07.118	-1.93191005	-0.11767979999999882	9.65955025
2026-03-26 16:25:07.370	-1.9417167	-0.11767979999999882	9.6497436
2026-03-26 16:25:07.613	-1.9417167	-0.10787314999999882	9.65955025
2026-03-26 16:25:07.871	-1.93191005	-0.11767979999999882	9.6497436
2026-03-26 16:25:08.112	-1.9417167	-0.1274864499999988	9.6497436
2026-03-26 16:25:08.373	-1.9417167	-0.10787314999999882	9.6497436
2026-03-26 16:25:08.611	-1.9417167	-0.11767979999999882	9.65955025
2026-03-26 16:25:08.871	-1.9417167	-0.11767979999999882	9.65955025
2026-03-26 16:25:09.111	-1.9417167	-0.1274864499999988	9.6497436
2026-03-26 16:25:09.373	-1.9417167	-0.11767979999999882	9.65955025
2026-03-26 16:25:09.614	-1.93191005	-0.11767979999999882	9.65955025
2026-03-26 16:25:09.872	-1.9417167	-0.10787314999999882	9.65955025
2026-03-26 16:25:10.111	-1.9417167	-0.11767979999999882	9.65955025
2026-03-26 16:25:10.373	-1.9417167	-0.11767979999999882	9.6497436
2026-03-26 16:25:10.616	-1.9417167	-0.10787314999999882	9.65955025
2026-03-26 16:25:10.875	-1.93191005	-0.1470997499999988	9.639936950000001
2026-03-26 16:25:11.112	-1.9417167	-0.10787314999999882	9.65955025
2026-03-26 16:25:11.371	-1.93191005	-0.1274864499999988	9.65955025
2026-03-26 16:25:11.611	-1.9417167	-0.10787314999999882	9.65955025
2026-03-26 16:25:11.873	-1.9417167	-0.10787314999999882	9.65955025
2026-03-26 16:25:12.111	-1.9417167	-0.11767979999999882	9.65955025
2026-03-26 16:25:12.374	-1.9417167	-0.11767979999999882	9.65955025
2026-03-26 16:25:12.616	-1.93191005	-0.11767979999999882	9.6497436
2026-03-26 16:25:12.876	-1.9417167	-0.11767979999999882	9.6497436
2026-03-26 16:25:13.111	-1.9417167	-0.11767979999999882	9.6497436
2026-03-26 16:25:13.376	-1.9417167	-0.10787314999999882	9.6497436
2026-03-26 16:25:13.612	-1.9417167	-0.11767979999999882	9.6497436
2026-03-26 16:25:13.873	-1.9417167	-0.11767979999999882	9.65955025
2026-03-26 16:25:14.111	-1.9417167	-0.11767979999999882	9.65955025
2026-03-26 16:25:14.370	-1.95152335	-0.10787314999999882	9.65955025
2026-03-26 16:25:14.615	-1.95152335	-0.08825984999999882	9.65955025
2026-03-26 16:25:14.872	-1.96133	-0.08825984999999882	9.65955025
2026-03-26 16:25:15.111	-1.9221034000000001	-0.09806649999999882	9.6497436
2026-03-26 16:25:15.371	-1.95152335	-0.09806649999999882	9.6497436
2026-03-26 16:25:15.617	-1.9417167	-0.10787314999999882	9.6497436
2026-03-26 16:25:15.873	-1.96133	-0.10787314999999882	9.6497436
2026-03-26 16:25:16.111	-1.9221034000000001	-0.11767979999999882	9.6497436
2026-03-26 16:25:16.371	-1.91229675	-0.1372930999999988	9.6497436
2026-03-26 16:25:16.611	-1.96133	-0.09806649999999882	9.65955025
2026-03-26 16:25:16.874	-1.95152335	-0.09806649999999882	9.65955025
2026-03-26 16:25:17.111	-1.9417167	-0.10787314999999882	9.65955025
2026-03-26 16:25:17.372	-1.96133	-0.10787314999999882	9.65955025
2026-03-26 16:25:17.612	-1.9417167	-0.10787314999999882	9.65955025
2026-03-26 16:25:17.881	-1.9417167	-0.11767979999999882	9.6497436
2026-03-26 16:25:18.110	-1.95152335	-0.10787314999999882	9.6497436
2026-03-26 16:25:18.375	-1.9417167	-0.10787314999999882	9.65955025
2026-03-26 16:25:18.612	-1.93191005	-0.11767979999999882	9.65955025
2026-03-26 16:25:18.880	-1.9417167	-0.10787314999999882	9.6497436
2026-03-26 16:25:19.117	-1.9417167	-0.08825984999999882	9.65955025
2026-03-26 16:25:19.371	-1.9417167	-0.11767979999999882	9.65955025
2026-03-26 16:25:19.612	-1.95152335	-0.11767979999999882	9.6497436
2026-03-26 16:25:19.873	-1.95152335	-0.10787314999999882	9.65955025
2026-03-26 16:25:20.116	-1.9221034000000001	-0.1470997499999988	9.6497436
2026-03-26 16:25:20.373	-1.95152335	-0.08825984999999882	9.6693569
2026-03-26 16:25:20.612	-1.95152335	-0.08825984999999882	9.6693569
2026-03-26 16:25:20.872	-1.93191005	-0.11767979999999882	9.65955025
2026-03-26 16:25:21.111	-1.95152335	-0.1274864499999988	9.65955025
2026-03-26 16:25:21.372	-1.91229675	-0.10787314999999882	9.65955025
2026-03-26 16:25:21.612	-1.9417167	-0.11767979999999882	9.65955025
2026-03-26 16:25:21.876	-1.95152335	-0.11767979999999882	9.6497436
2026-03-26 16:25:22.113	-1.9417167	-0.11767979999999882	9.65955025
2026-03-26 16:25:22.392	-1.95152335	-0.11767979999999882	9.6497436
2026-03-26 16:25:22.612	-1.9417167	-0.11767979999999882	9.65955025
2026-03-26 16:25:22.875	-1.9417167	-0.10787314999999882	9.65955025
2026-03-26 16:25:23.116	-1.95152335	-0.1274864499999988	9.6497436
2026-03-26 16:25:23.372	-1.95152335	-0.10787314999999882	9.65955025
2026-03-26 16:25:23.613	-1.9417167	-0.11767979999999882	9.65955025
2026-03-26 16:25:23.880	-1.9417167	-0.10787314999999882	9.6497436
2026-03-26 16:25:24.111	-1.93191005	-0.09806649999999882	9.6693569
2026-03-26 16:25:24.371	-1.9417167	-0.11767979999999882	9.65955025
2026-03-26 16:25:24.611	-1.9417167	-0.11767979999999882	9.65955025
2026-03-26 16:25:24.873	-1.9417167	-0.11767979999999882	9.65955025
2026-03-26 16:25:25.111	-1.95152335	-0.10787314999999882	9.65955025
2026-03-26 16:25:25.375	-1.95152335	-0.09806649999999882	9.65955025
2026-03-26 16:25:25.624	-1.95152335	-0.10787314999999882	9.65955025
2026-03-26 16:25:25.874	-1.93191005	-0.1274864499999988	9.6497436
2026-03-26 16:25:26.113	-1.95152335	-0.10787314999999882	9.6497436
2026-03-26 16:25:26.371	-1.96133	-0.08825984999999882	9.65955025
2026-03-26 16:25:26.612	-1.9417167	-0.10787314999999882	9.65955025
2026-03-26 16:25:26.872	-1.95152335	-0.08825984999999882	9.65955025
2026-03-26 16:25:27.115	-1.9417167	-0.09806649999999882	9.6497436
2026-03-26 16:25:27.380	-1.95152335	-0.10787314999999882	9.6497436
2026-03-26 16:25:27.612	-1.91229675	-0.09806649999999882	9.6693569
2026-03-26 16:25:27.872	-1.93191005	-0.11767979999999882	9.6497436
2026-03-26 16:25:28.112	-1.95152335	-0.10787314999999882	9.65955025
2026-03-26 16:25:28.371	-1.9417167	-0.10787314999999882	9.6497436
2026-03-26 16:25:28.614	-1.93191005	-0.09806649999999882	9.65955025
2026-03-26 16:25:28.876	-1.95152335	-0.09806649999999882	9.6497436
2026-03-26 16:25:29.110	-1.96133	-0.10787314999999882	9.65955025
2026-03-26 16:25:29.374	-1.9417167	-0.10787314999999882	9.6497436
2026-03-26 16:25:29.613	-1.95152335	-0.09806649999999882	9.65955025
2026-03-26 16:25:29.873	-1.95152335	-0.10787314999999882	9.65955025
2026-03-26 16:25:30.115	-1.93191005	-0.10787314999999882	9.6497436
2026-03-26 16:25:30.370	-1.9417167	-0.10787314999999882	9.65955025
2026-03-26 16:25:30.613	-1.95152335	-0.10787314999999882	9.6497436
2026-03-26 16:25:30.874	-1.95152335	-0.11767979999999882	9.6497436
2026-03-26 16:25:31.112	-1.95152335	-0.09806649999999882	9.6497436
2026-03-26 16:25:31.371	-1.95152335	-0.10787314999999882	9.6497436
2026-03-26 16:25:31.611	-1.9417167	-0.09806649999999882	9.65955025
2026-03-26 16:25:31.873	-1.9417167	-0.10787314999999882	9.65955025
2026-03-26 16:25:32.111	-1.95152335	-0.08825984999999882	9.6497436
2026-03-26 16:25:32.380	-1.9417167	-0.09806649999999882	9.65955025
2026-03-26 16:25:32.611	-1.96133	-0.10787314999999882	9.65955025
2026-03-26 16:25:32.871	-1.9417167	-0.10787314999999882	9.65955025
2026-03-26 16:25:33.112	-1.95152335	-0.09806649999999882	9.6497436
2026-03-26 16:25:33.371	-1.95152335	-0.09806649999999882	9.6497436
2026-03-26 16:25:33.613	-1.95152335	-0.09806649999999882	9.65955025
2026-03-26 16:25:33.882	-1.95152335	-0.09806649999999882	9.65955025
2026-03-26 16:25:34.112	-1.95152335	-0.09806649999999882	9.6497436
2026-03-26 16:25:34.373	-1.95152335	-0.08825984999999882	9.6497436
2026-03-26 16:25:34.614	-1.9417167	-0.10787314999999882	9.65955025
2026-03-26 16:25:34.874	-1.9417167	-0.09806649999999882	9.65955025
2026-03-26 16:25:35.115	-1.93191005	-0.1274864499999988	9.6497436
2026-03-26 16:25:35.377	-1.95152335	-0.09806649999999882	9.6497436
2026-03-26 16:25:35.611	-1.9417167	-0.10787314999999882	9.65955025
2026-03-26 16:25:35.875	-1.9417167	-0.10787314999999882	9.65955025
2026-03-26 16:25:36.113	-1.9417167	-0.10787314999999882	9.6497436
2026-03-26 16:25:36.376	-1.95152335	-0.10787314999999882	9.65955025
2026-03-26 16:25:36.616	-1.9417167	-0.10787314999999882	9.65955025
2026-03-26 16:25:36.873	-1.95152335	-0.10787314999999882	9.6497436
2026-03-26 16:25:37.112	-1.95152335	-0.09806649999999882	9.65955025
2026-03-26 16:25:37.370	-1.9417167	-0.09806649999999882	9.6497436
2026-03-26 16:25:37.613	-1.9417167	-0.10787314999999882	9.65955025
2026-03-26 16:25:37.875	-1.95152335	-0.10787314999999882	9.65955025
2026-03-26 16:25:38.111	-1.9417167	-0.10787314999999882	9.65955025
2026-03-26 16:25:38.370	-1.9417167	-0.10787314999999882	9.6497436
2026-03-26 16:25:38.611	-1.95152335	-0.11767979999999882	9.6497436
2026-03-26 16:25:38.874	-1.95152335	-0.10787314999999882	9.65955025
2026-03-26 16:25:39.111	-1.9417167	-0.10787314999999882	9.65955025
2026-03-26 16:25:39.371	-1.97113665	-0.1863263499999988	9.60071035
2026-03-26 16:25:39.610	-1.96133	-0.08825984999999882	9.6497436
2026-03-26 16:25:39.876	-1.93191005	-0.10787314999999882	9.65955025
2026-03-26 16:25:40.112	-1.99074995	-0.06864654999999882	9.65955025
2026-03-26 16:25:40.370	-1.91229675	-0.1274864499999988	9.6497436
2026-03-26 16:25:40.612	-1.96133	-0.09806649999999882	9.6497436
2026-03-26 16:25:40.873	-1.9221034000000001	-0.11767979999999882	9.65955025
2026-03-26 16:25:41.110	-1.9417167	-0.11767979999999882	9.6497436
2026-03-26 16:25:41.374	-1.96133	-0.10787314999999882	9.65955025
2026-03-26 16:25:41.616	-1.95152335	-0.09806649999999882	9.6497436
2026-03-26 16:25:41.873	-1.93191005	-0.10787314999999882	9.65955025
2026-03-26 16:25:42.112	-1.97113665	-0.07845319999999882	9.6497436
2026-03-26 16:25:42.371	-1.95152335	-0.10787314999999882	9.65955025
2026-03-26 16:25:42.613	-1.9417167	-0.10787314999999882	9.65955025
2026-03-26 16:25:42.875	-1.9417167	-0.09806649999999882	9.65955025
2026-03-26 16:25:43.110	-1.93191005	-0.11767979999999882	9.65955025
2026-03-26 16:25:43.373	-1.95152335	-0.1372930999999988	9.65955025
2026-03-26 16:25:43.612	-1.96133	-0.1274864499999988	9.6497436
2026-03-26 16:25:43.871	-1.93191005	-0.11767979999999882	9.6497436
2026-03-26 16:25:44.111	-1.97113665	-0.08825984999999882	9.65955025
2026-03-26 16:25:44.371	-1.9417167	-0.10787314999999882	9.6497436
2026-03-26 16:25:44.612	-1.95152335	-0.09806649999999882	9.65955025
2026-03-26 16:25:44.874	-1.9417167	-0.11767979999999882	9.6497436
2026-03-26 16:25:45.111	-1.91229675	-0.10787314999999882	9.67916355
2026-03-26 16:25:45.375	-1.9417167	-0.1274864499999988	9.65955025
2026-03-26 16:25:45.610	-1.96133	-0.09806649999999882	9.65955025
2026-03-26 16:25:45.871	-1.9417167	-0.11767979999999882	9.65955025
2026-03-26 16:25:46.112	-1.9417167	-0.1274864499999988	9.65955025
2026-03-26 16:25:46.370	-1.9417167	-0.11767979999999882	9.65955025
2026-03-26 16:25:46.615	-1.9417167	-0.1274864499999988	9.6497436
2026-03-26 16:25:46.873	-1.95152335	-0.10787314999999882	9.6497436
2026-03-26 16:25:47.112	-1.93191005	-0.1274864499999988	9.65955025
2026-03-26 16:25:47.372	-1.97113665	-0.08825984999999882	9.65955025
2026-03-26 16:25:47.615	-1.9221034000000001	-0.1274864499999988	9.65955025
2026-03-26 16:25:47.877	-1.9417167	-0.11767979999999882	9.65955025
2026-03-26 16:25:48.110	-1.95152335	-0.10787314999999882	9.65955025
2026-03-26 16:25:48.371	-1.9417167	-0.10787314999999882	9.65955025
2026-03-26 16:25:48.613	-1.9417167	-0.1274864499999988	9.65955025
2026-03-26 16:25:48.876	-1.95152335	-0.10787314999999882	9.6497436
2026-03-26 16:25:49.113	-1.9417167	-0.11767979999999882	9.6497436
2026-03-26 16:25:49.370	-1.9417167	-0.1274864499999988	9.65955025
2026-03-26 16:25:49.612	-1.9417167	-0.10787314999999882	9.65955025
2026-03-26 16:25:49.872	-1.95152335	-0.09806649999999882	9.65955025
2026-03-26 16:25:50.111	-1.9417167	-0.11767979999999882	9.65955025
2026-03-26 16:25:50.371	-1.9417167	-0.1274864499999988	9.65955025
2026-03-26 16:25:50.616	-1.9417167	-0.11767979999999882	9.6497436
2026-03-26 16:25:50.872	-1.95152335	-0.1274864499999988	9.65955025
2026-03-26 16:25:51.113	-1.9417167	-0.11767979999999882	9.6497436
2026-03-26 16:25:51.374	-1.9417167	-0.10787314999999882	9.65955025
2026-03-26 16:25:51.614	-1.93191005	-0.11767979999999882	9.65955025
2026-03-26 16:25:51.872	-1.9417167	-0.11767979999999882	9.65955025
2026-03-26 16:25:52.112	-1.91229675	-0.1470997499999988	9.639936950000001
2026-03-26 16:25:52.370	-1.96133	-0.1372930999999988	9.6497436
2026-03-26 16:25:52.612	-1.9417167	-0.10787314999999882	9.6497436
2026-03-26 16:25:52.873	-1.9417167	-0.1274864499999988	9.6497436
2026-03-26 16:25:53.113	-1.95152335	-0.10787314999999882	9.6497436
2026-03-26 16:25:53.370	-1.9417167	-0.11767979999999882	9.6497436
2026-03-26 16:25:53.617	-1.95152335	-0.10787314999999882	9.6497436
2026-03-26 16:25:53.874	-1.95152335	-0.10787314999999882	9.6497436
2026-03-26 16:25:54.113	-1.9417167	-0.10787314999999882	9.65955025
2026-03-26 16:25:54.373	-1.9417167	-0.11767979999999882	9.6497436
2026-03-26 16:25:54.610	-1.95152335	-0.11767979999999882	9.6497436
2026-03-26 16:25:54.871	-1.9417167	-0.10787314999999882	9.65955025
2026-03-26 16:25:55.112	-1.9417167	-0.11767979999999882	9.6497436
2026-03-26 16:25:55.376	-1.95152335	-0.10787314999999882	9.65955025
2026-03-26 16:25:55.611	-1.95152335	-0.11767979999999882	9.65955025
2026-03-26 16:25:55.871	-1.9417167	-0.10787314999999882	9.6497436
2026-03-26 16:25:56.111	-1.96133	-0.10787314999999882	9.639936950000001
2026-03-26 16:25:56.375	-1.95152335	-0.10787314999999882	9.65955025
2026-03-26 16:25:56.615	-1.96133	-0.10787314999999882	9.639936950000001
2026-03-26 16:25:56.881	-1.95152335	-0.10787314999999882	9.65955025
2026-03-26 16:25:57.113	-1.95152335	-0.11767979999999882	9.6497436
2026-03-26 16:25:57.378	-1.95152335	-0.10787314999999882	9.65955025
2026-03-26 16:25:57.613	-1.95152335	-0.10787314999999882	9.65955025
2026-03-26 16:25:57.873	-1.9417167	-0.10787314999999882	9.6497436
2026-03-26 16:25:58.112	-1.95152335	-0.10787314999999882	9.6497436
2026-03-26 16:25:58.371	-1.95152335	-0.10787314999999882	9.65955025
2026-03-26 16:25:58.612	-1.95152335	-0.10787314999999882	9.65955025
2026-03-26 16:25:58.877	-1.95152335	-0.11767979999999882	9.6497436
2026-03-26 16:25:59.111	-1.9417167	-0.11767979999999882	9.65955025
2026-03-26 16:25:59.377	-1.95152335	-0.10787314999999882	9.65955025
2026-03-26 16:25:59.617	-1.9417167	-0.11767979999999882	9.65955025
2026-03-26 16:25:59.875	-1.96133	-0.1274864499999988	9.6497436
2026-03-26 16:26:00.111	-1.95152335	-0.10787314999999882	9.6497436
2026-03-26 16:26:00.370	-1.95152335	-0.11767979999999882	9.65955025
2026-03-26 16:26:00.615	-1.9417167	-0.10787314999999882	9.6497436
2026-03-26 16:26:00.871	-1.95152335	-0.10787314999999882	9.65955025
2026-03-26 16:26:01.111	-1.95152335	-0.10787314999999882	9.6497436
2026-03-26 16:26:01.375	-1.9417167	-0.10787314999999882	9.65955025
2026-03-26 16:26:01.616	-1.95152335	-0.10787314999999882	9.65955025
2026-03-26 16:26:01.874	-1.95152335	-0.11767979999999882	9.65955025
2026-03-26 16:26:02.111	-1.9417167	-0.11767979999999882	9.65955025
2026-03-26 16:26:02.370	-1.95152335	-0.10787314999999882	9.6497436
2026-03-26 16:26:02.614	-1.9417167	-0.11767979999999882	9.65955025
2026-03-26 16:26:02.876	-1.95152335	-0.10787314999999882	9.6497436
2026-03-26 16:26:03.111	-1.95152335	-0.10787314999999882	9.6497436
2026-03-26 16:26:03.372	-1.9417167	-0.11767979999999882	9.65955025
2026-03-26 16:26:03.611	-1.95152335	-0.11767979999999882	9.6497436
2026-03-26 16:26:03.874	-1.95152335	-0.10787314999999882	9.65955025
2026-03-26 16:26:04.110	-1.95152335	-0.10787314999999882	9.65955025
2026-03-26 16:26:04.370	-1.95152335	-0.10787314999999882	9.65955025
2026-03-26 16:26:04.613	-1.95152335	-0.10787314999999882	9.6497436
2026-03-26 16:26:04.873	-1.95152335	-0.10787314999999882	9.65955025
2026-03-26 16:26:05.111	-1.95152335	-0.11767979999999882	9.65955025
2026-03-26 16:26:05.370	-1.95152335	-0.10787314999999882	9.65955025
2026-03-26 16:26:05.611	-1.95152335	-0.11767979999999882	9.6497436
2026-03-26 16:26:05.871	-1.9417167	-0.11767979999999882	9.6497436
2026-03-26 16:26:06.111	-1.9417167	-0.10787314999999882	9.65955025
2026-03-26 16:26:06.371	-1.9417167	-0.10787314999999882	9.6497436
2026-03-26 16:26:06.612	-1.95152335	-0.10787314999999882	9.6497436
2026-03-26 16:26:06.876	-1.95152335	-0.10787314999999882	9.65955025
2026-03-26 16:26:07.110	-1.9417167	-0.10787314999999882	9.65955025
2026-03-26 16:26:07.375	-1.95152335	-0.10787314999999882	9.65955025
2026-03-26 16:26:07.610	-1.9417167	-0.11767979999999882	9.65955025
2026-03-26 16:26:07.872	-1.9417167	-0.10787314999999882	9.6497436
2026-03-26 16:26:08.110	-1.95152335	-0.10787314999999882	9.6497436
2026-03-26 16:26:08.370	-1.95152335	-0.11767979999999882	9.65955025
2026-03-26 16:26:08.613	-1.95152335	-0.10787314999999882	9.6497436
2026-03-26 16:26:08.873	-1.9417167	-0.11767979999999882	9.6497436
2026-03-26 16:26:09.110	-1.95152335	-0.10787314999999882	9.65955025
2026-03-26 16:26:09.373	-1.95152335	-0.10787314999999882	9.6497436
2026-03-26 16:26:09.614	-1.95152335	-0.10787314999999882	9.65955025
2026-03-26 16:26:09.873	-1.95152335	-0.10787314999999882	9.65955025
2026-03-26 16:26:10.112	-1.96133	-0.09806649999999882	9.6497436
2026-03-26 16:26:10.370	-1.95152335	-0.11767979999999882	9.6497436
2026-03-26 16:26:10.614	-1.9221034000000001	-0.11767979999999882	9.65955025
2026-03-26 16:26:10.871	-1.95152335	-0.10787314999999882	9.6497436
2026-03-26 16:26:11.111	-1.9809433	-0.1372930999999988	9.610517
2026-03-26 16:26:11.369	-2.01036325	-0.2059396499999988	9.62032365
2026-03-26 16:26:11.612	-1.87307015	-0.10787314999999882	9.6301303
2026-03-26 16:26:11.873	-1.91229675	-0.06864654999999882	9.6301303
2026-03-26 16:26:12.113	-1.99074995	-0.058839899999998814	9.6497436
2026-03-26 16:26:12.369	-1.8828768	-0.2255529499999988	9.6497436
2026-03-26 16:26:12.611	-1.6082906000000001	-0.5099457999999988	9.5124505
2026-03-26 16:26:12.871	-1.91229675	-0.1372930999999988	9.639936950000001
2026-03-26 16:26:13.111	-1.9417167	-0.11767979999999882	9.65955025
2026-03-26 16:26:13.369	-1.9809433	-0.07845319999999882	9.65955025
2026-03-26 16:26:13.611	-1.91229675	-0.1274864499999988	9.6497436
2026-03-26 16:26:13.872	-1.96133	-0.08825984999999882	9.65955025
2026-03-26 16:26:14.112	-1.9417167	-0.10787314999999882	9.65955025
2026-03-26 16:26:14.371	-1.95152335	-0.09806649999999882	9.65955025
2026-03-26 16:26:14.612	-1.96133	-0.09806649999999882	9.65955025
2026-03-26 16:26:14.872	-1.9417167	-0.11767979999999882	9.65955025
2026-03-26 16:26:15.112	-1.95152335	-0.10787314999999882	9.65955025
2026-03-26 16:26:15.374	-1.9417167	-0.10787314999999882	9.6497436
2026-03-26 16:26:15.613	-1.9417167	-0.11767979999999882	9.6497436
2026-03-26 16:26:15.871	-1.95152335	-0.10787314999999882	9.6497436
2026-03-26 16:26:16.111	-1.95152335	-0.10787314999999882	9.6497436
2026-03-26 16:26:16.374	-1.9417167	-0.09806649999999882	9.6693569
2026-03-26 16:26:16.612	-1.95152335	-0.10787314999999882	9.6497436
2026-03-26 16:26:16.874	-1.95152335	-0.11767979999999882	9.6497436
2026-03-26 16:26:17.113	-1.95152335	-0.10787314999999882	9.6497436
2026-03-26 16:26:17.369	-1.95152335	-0.10787314999999882	9.6497436
2026-03-26 16:26:17.611	-1.9417167	-0.1274864499999988	9.65955025
2026-03-26 16:26:17.875	-1.9417167	-0.11767979999999882	9.65955025
2026-03-26 16:26:18.115	-1.9417167	-0.11767979999999882	9.6497436
2026-03-26 16:26:18.372	-1.9417167	-0.09806649999999882	9.67916355
2026-03-26 16:26:18.612	-1.96133	-0.11767979999999882	9.6497436
2026-03-26 16:26:18.872	-1.95152335	-0.10787314999999882	9.65955025
2026-03-26 16:26:19.111	-1.9417167	-0.11767979999999882	9.6497436
2026-03-26 16:26:19.372	-1.95152335	-0.10787314999999882	9.6497436
2026-03-26 16:26:19.612	-1.95152335	-0.10787314999999882	9.6497436
2026-03-26 16:26:19.871	-1.9417167	-0.10787314999999882	9.65955025
2026-03-26 16:26:20.110	-1.95152335	-0.10787314999999882	9.6497436
2026-03-26 16:26:20.369	-1.95152335	-0.10787314999999882	9.6497436
2026-03-26 16:26:20.613	-1.9417167	-0.10787314999999882	9.65955025
2026-03-26 16:26:20.875	-1.95152335	-0.10787314999999882	9.6497436
2026-03-26 16:26:21.112	-1.9417167	-0.10787314999999882	9.65955025
2026-03-26 16:26:21.369	-1.95152335	-0.10787314999999882	9.6497436
2026-03-26 16:26:21.612	-1.9417167	-0.11767979999999882	9.65955025
2026-03-26 16:26:21.874	-1.9417167	-0.10787314999999882	9.6497436
2026-03-26 16:26:22.110	-1.95152335	-0.10787314999999882	9.6497436
2026-03-26 16:26:22.370	-1.96133	-0.09806649999999882	9.65955025
2026-03-26 16:26:22.614	-1.9417167	-0.11767979999999882	9.6497436
2026-03-26 16:26:22.872	-1.96133	-0.10787314999999882	9.6497436
2026-03-26 16:26:23.113	-1.93191005	-0.11767979999999882	9.6497436
2026-03-26 16:26:23.370	-1.95152335	-0.09806649999999882	9.65955025
2026-03-26 16:26:23.612	-1.93191005	-0.1274864499999988	9.6497436
2026-03-26 16:26:23.873	-1.95152335	-0.09806649999999882	9.65955025
2026-03-26 16:26:24.113	-1.96133	-0.09806649999999882	9.65955025
2026-03-26 16:26:24.371	-1.97113665	-0.08825984999999882	9.65955025
2026-03-26 16:26:24.611	-1.9417167	-0.11767979999999882	9.65955025
2026-03-26 16:26:24.872	-1.93191005	-0.1274864499999988	9.6497436
2026-03-26 16:26:25.111	-1.9417167	-0.11767979999999882	9.65955025
2026-03-26 16:26:25.373	-1.9417167	-0.11767979999999882	9.6497436
2026-03-26 16:26:25.613	-1.9417167	-0.1274864499999988	9.65955025
2026-03-26 16:26:25.873	-1.9417167	-0.11767979999999882	9.65955025
2026-03-26 16:26:26.112	-1.9417167	-0.11767979999999882	9.65955025
2026-03-26 16:26:26.371	-1.9417167	-0.11767979999999882	9.65955025
2026-03-26 16:26:26.614	-1.9417167	-0.1274864499999988	9.6497436
2026-03-26 16:26:26.874	-1.9417167	-0.11767979999999882	9.65955025
2026-03-26 16:26:27.112	-1.9417167	-0.1274864499999988	9.65955025
2026-03-26 16:26:27.372	-1.9417167	-0.1274864499999988	9.6497436
2026-03-26 16:26:27.613	-1.95152335	-0.1274864499999988	9.6497436
2026-03-26 16:26:27.871	-1.9417167	-0.1274864499999988	9.65955025
2026-03-26 16:26:28.110	-1.9417167	-0.1274864499999988	9.65955025
2026-03-26 16:26:28.369	-1.9417167	-0.11767979999999882	9.6497436
2026-03-26 16:26:28.611	-1.93191005	-0.11767979999999882	9.6497436
2026-03-26 16:26:28.873	-1.9417167	-0.11767979999999882	9.65955025
2026-03-26 16:26:29.114	-1.9417167	-0.11767979999999882	9.65955025
2026-03-26 16:26:29.374	-1.9417167	-0.1274864499999988	9.65955025
2026-03-26 16:26:29.618	-1.93191005	-0.1274864499999988	9.65955025
2026-03-26 16:26:29.871	-1.9417167	-0.1274864499999988	9.65955025
2026-03-26 16:26:30.113	-1.9417167	-0.1274864499999988	9.65955025
2026-03-26 16:26:30.370	-1.9417167	-0.11767979999999882	9.65955025
2026-03-26 16:26:30.610	-1.9417167	-0.11767979999999882	9.6497436
2026-03-26 16:26:30.870	-1.9417167	-0.1274864499999988	9.6497436
2026-03-26 16:26:31.111	-1.9417167	-0.1274864499999988	9.65955025
2026-03-26 16:26:31.370	-1.9417167	-0.1274864499999988	9.65955025
2026-03-26 16:26:31.610	-1.9417167	-0.1274864499999988	9.65955025
2026-03-26 16:26:31.873	-1.9417167	-0.1274864499999988	9.65955025
2026-03-26 16:26:32.111	-1.9417167	-0.1274864499999988	9.6497436
2026-03-26 16:26:32.369	-1.9417167	-0.1274864499999988	9.6497436
2026-03-26 16:26:32.613	-1.9417167	-0.11767979999999882	9.65955025
2026-03-26 16:26:32.879	-1.9417167	-0.11767979999999882	9.65955025
2026-03-26 16:26:33.110	-1.9417167	-0.11767979999999882	9.65955025
2026-03-26 16:26:33.369	-1.9417167	-0.1274864499999988	9.6497436
2026-03-26 16:26:33.611	-1.9417167	-0.11767979999999882	9.65955025
2026-03-26 16:26:33.870	-1.9417167	-0.11767979999999882	9.65955025
2026-03-26 16:26:34.110	-1.9417167	-0.1274864499999988	9.65955025
2026-03-26 16:26:34.369	-1.9417167	-0.11767979999999882	9.65955025
2026-03-26 16:26:34.612	-1.9417167	-0.11767979999999882	9.6693569
2026-03-26 16:26:34.874	-1.9417167	-0.11767979999999882	9.65955025
2026-03-26 16:26:35.110	-1.9417167	-0.11767979999999882	9.6497436
2026-03-26 16:26:35.369	-1.9417167	-0.11767979999999882	9.65955025
2026-03-26 16:26:35.611	-1.9417167	-0.11767979999999882	9.65955025
2026-03-26 16:26:35.871	-1.9417167	-0.1274864499999988	9.6497436
2026-03-26 16:26:36.110	-1.9417167	-0.11767979999999882	9.65955025
2026-03-26 16:26:36.369	-1.9417167	-0.1274864499999988	9.65955025
2026-03-26 16:26:36.612	-1.9417167	-0.1274864499999988	9.6497436
2026-03-26 16:26:36.871	-1.9417167	-0.11767979999999882	9.65955025
2026-03-26 16:26:37.110	-1.93191005	-0.1274864499999988	9.6497436
2026-03-26 16:26:37.374	-1.9417167	-0.1274864499999988	9.65955025
2026-03-26 16:26:37.611	-1.93191005	-0.11767979999999882	9.65955025
2026-03-26 16:26:37.875	-1.93191005	-0.1274864499999988	9.65955025
2026-03-26 16:26:38.112	-1.9417167	-0.11767979999999882	9.6497436
2026-03-26 16:26:38.369	-1.9417167	-0.11767979999999882	9.65955025
2026-03-26 16:26:38.610	-1.9417167	-0.11767979999999882	9.65955025
2026-03-26 16:26:38.872	-1.9417167	-0.1274864499999988	9.65955025
2026-03-26 16:26:39.113	-1.9417167	-0.11767979999999882	9.6497436
2026-03-26 16:26:39.369	-1.9417167	-0.11767979999999882	9.65955025
2026-03-26 16:26:39.611	-1.9417167	-0.11767979999999882	9.6497436
2026-03-26 16:26:39.871	-1.9417167	-0.1274864499999988	9.6497436
2026-03-26 16:26:40.110	-1.9417167	-0.1274864499999988	9.6497436
2026-03-26 16:26:40.376	-1.9417167	-0.11767979999999882	9.65955025
2026-03-26 16:26:40.613	-1.9417167	-0.11767979999999882	9.6497436
2026-03-26 16:26:40.872	-1.9417167	-0.11767979999999882	9.6497436
2026-03-26 16:26:41.111	-1.95152335	-0.10787314999999882	9.65955025
2026-03-26 16:26:41.372	-1.9417167	-0.11767979999999882	9.6497436
2026-03-26 16:26:41.611	-1.9417167	-0.11767979999999882	9.65955025
2026-03-26 16:26:41.875	-1.93191005	-0.11767979999999882	9.6497436
2026-03-26 16:26:42.113	-1.93191005	-0.11767979999999882	9.65955025
2026-03-26 16:26:42.369	-1.93191005	-0.1274864499999988	9.6497436
2026-03-26 16:26:42.612	-1.9417167	-0.11767979999999882	9.65955025
2026-03-26 16:26:42.875	-1.9417167	-0.11767979999999882	9.6497436
2026-03-26 16:26:43.111	-1.9417167	-0.11767979999999882	9.65955025
2026-03-26 16:26:43.376	-1.9417167	-0.11767979999999882	9.6497436
2026-03-26 16:26:43.614	-1.9417167	-0.11767979999999882	9.65955025
2026-03-26 16:26:43.870	-1.9417167	-0.11767979999999882	9.6497436
2026-03-26 16:26:44.113	-1.9417167	-0.11767979999999882	9.6497436
2026-03-26 16:26:44.370	-1.9417167	-0.1274864499999988	9.65955025
2026-03-26 16:26:44.611	-1.9417167	-0.1274864499999988	9.6497436
2026-03-26 16:26:44.875	-1.93191005	-0.11767979999999882	9.639936950000001
2026-03-26 16:26:45.110	-1.93191005	-0.1274864499999988	9.6497436
2026-03-26 16:26:45.375	-1.93191005	-0.1274864499999988	9.65955025
2026-03-26 16:26:45.612	-1.9417167	-0.11767979999999882	9.6497436
2026-03-26 16:26:45.869	-1.95152335	-0.11767979999999882	9.65955025
2026-03-26 16:26:46.111	-1.9417167	-0.11767979999999882	9.6497436
2026-03-26 16:26:46.369	-1.9417167	-0.1274864499999988	9.6497436
2026-03-26 16:26:46.613	-1.9417167	-0.1274864499999988	9.65955025
2026-03-26 16:26:46.870	-1.9417167	-0.11767979999999882	9.65955025
2026-03-26 16:26:47.116	-1.95152335	-0.11767979999999882	9.65955025
2026-03-26 16:26:47.370	-1.93191005	-0.11767979999999882	9.65955025
2026-03-26 16:26:47.612	-1.93191005	-0.11767979999999882	9.65955025
2026-03-26 16:26:47.870	-1.9417167	-0.11767979999999882	9.6497436
2026-03-26 16:26:48.111	-1.9417167	-0.1274864499999988	9.65955025
2026-03-26 16:26:48.369	-1.9417167	-0.11767979999999882	9.6497436
2026-03-26 16:26:48.614	-1.9417167	-0.1274864499999988	9.65955025
2026-03-26 16:26:48.870	-1.93191005	-0.1274864499999988	9.65955025
2026-03-26 16:26:49.112	-1.9417167	-0.10787314999999882	9.65955025
2026-03-26 16:26:49.369	-1.9417167	-0.11767979999999882	9.65955025
2026-03-26 16:26:49.610	-1.9417167	-0.11767979999999882	9.65955025
2026-03-26 16:26:49.870	-1.9417167	-0.11767979999999882	9.65955025
2026-03-26 16:26:50.114	-1.9417167	-0.11767979999999882	9.6497436
2026-03-26 16:26:50.369	-1.9417167	-0.11767979999999882	9.65955025
2026-03-26 16:26:50.611	-1.9417167	-0.11767979999999882	9.65955025
2026-03-26 16:26:50.874	-1.9417167	-0.1274864499999988	9.6497436
2026-03-26 16:26:51.111	-1.95152335	-0.10787314999999882	9.65955025
2026-03-26 16:26:51.370	-1.93191005	-0.1274864499999988	9.65955025
2026-03-26 16:26:51.610	-1.9417167	-0.10787314999999882	9.65955025
2026-03-26 16:26:51.872	-1.9417167	-0.1274864499999988	9.6497436
2026-03-26 16:26:52.109	-1.9417167	-0.11767979999999882	9.65955025
2026-03-26 16:26:52.369	-1.9417167	-0.11767979999999882	9.6497436
2026-03-26 16:26:52.615	-1.93191005	-0.11767979999999882	9.6497436
2026-03-26 16:26:52.872	-1.95152335	-0.11767979999999882	9.6497436
2026-03-26 16:26:53.113	-1.9417167	-0.11767979999999882	9.65955025
2026-03-26 16:26:53.370	-1.9417167	-0.11767979999999882	9.65955025
2026-03-26 16:26:53.615	-1.93191005	-0.1274864499999988	9.6497436
2026-03-26 16:26:53.870	-1.9221034000000001	-0.1372930999999988	9.639936950000001
2026-03-26 16:26:54.117	-1.9417167	-0.11767979999999882	9.65955025
2026-03-26 16:26:54.371	-1.93191005	-0.11767979999999882	9.65955025
2026-03-26 16:26:54.611	-1.9417167	-0.1274864499999988	9.65955025
2026-03-26 16:26:54.872	-1.9417167	-0.1274864499999988	9.65955025
2026-03-26 16:26:55.109	-1.93191005	-0.1274864499999988	9.6497436
2026-03-26 16:26:55.370	-1.9417167	-0.11767979999999882	9.65955025
2026-03-26 16:26:55.612	-1.93191005	-0.1274864499999988	9.65955025
2026-03-26 16:26:55.871	-1.9417167	-0.1274864499999988	9.65955025
2026-03-26 16:26:56.110	-1.93191005	-0.1274864499999988	9.65955025
2026-03-26 16:26:56.370	-1.9417167	-0.11767979999999882	9.6497436
2026-03-26 16:26:56.615	-1.93191005	-0.1274864499999988	9.65955025
2026-03-26 16:26:56.871	-1.9417167	-0.1274864499999988	9.6497436
2026-03-26 16:26:57.110	-1.93191005	-0.1274864499999988	9.65955025
2026-03-26 16:26:57.373	-1.9417167	-0.1274864499999988	9.6497436
2026-03-26 16:26:57.610	-1.99074995	-0.13729309999999884	9.60071035
2026-03-26 16:26:57.874	-2.0201699	-0.058839899999998814	9.6889702
2026-03-26 16:26:58.112	-1.95152335	-0.1372930999999988	9.65955025
2026-03-26 16:26:58.369	-1.8828768	-0.1863263499999988	9.639936950000001
2026-03-26 16:26:58.612	-1.91229675	-0.1667130499999988	9.6497436
2026-03-26 16:26:58.873	-1.9221034000000001	-0.1470997499999988	9.65955025
2026-03-26 16:26:59.110	-1.9221034000000001	-0.1372930999999988	9.65955025
2026-03-26 16:26:59.374	-1.9221034000000001	-0.1470997499999988	9.65955025
2026-03-26 16:26:59.612	-1.9221034000000001	-0.1470997499999988	9.65955025
2026-03-26 16:26:59.873	-1.9221034000000001	-0.1569063999999988	9.639936950000001
2026-03-26 16:27:00.109	-1.95152335	-0.1274864499999988	9.6693569
2026-03-26 16:27:00.369	-1.9809433	-0.11767979999999882	9.6497436
2026-03-26 16:27:00.612	-1.9417167	-0.11767979999999882	9.6693569
2026-03-26 16:27:00.870	-1.9417167	-0.1274864499999988	9.65955025
2026-03-26 16:27:01.110	-1.9417167	-0.1274864499999988	9.65955025
2026-03-26 16:27:01.370	-1.9221034000000001	-0.1372930999999988	9.65955025
2026-03-26 16:27:01.612	-1.9024901	-0.11767979999999882	9.62032365
2026-03-26 16:27:01.872	-1.96133	-0.1274864499999988	9.6693569
2026-03-26 16:27:02.113	-1.93191005	-0.1274864499999988	9.65955025
2026-03-26 16:27:02.369	-1.93191005	-0.1372930999999988	9.6497436
2026-03-26 16:27:02.610	-1.93191005	-0.1372930999999988	9.6497436
2026-03-26 16:27:02.870	-1.96133	-0.10787314999999882	9.65955025
2026-03-26 16:27:03.111	-1.96133	-0.1274864499999988	9.639936950000001
2026-03-26 16:27:03.369	-1.9221034000000001	-0.1667130499999988	9.6693569
2026-03-26 16:27:03.611	-1.95152335	-0.10787314999999882	9.6497436
2026-03-26 16:27:03.870	-1.93191005	-0.1372930999999988	9.65955025
2026-03-26 16:27:04.110	-1.9221034000000001	-0.1372930999999988	9.6693569
2026-03-26 16:27:04.368	-1.95152335	-0.1274864499999988	9.639936950000001
2026-03-26 16:27:04.611	-1.93191005	-0.11767979999999882	9.65955025
2026-03-26 16:27:04.875	-1.93191005	-0.06864654999999882	9.6693569
2026-03-26 16:27:05.116	-1.89268345	-0.08825984999999882	9.6889702
2026-03-26 16:27:05.369	-1.91229675	-0.1667130499999988	9.6497436
2026-03-26 16:27:05.612	-1.91229675	-0.1765196999999988	9.639936950000001
2026-03-26 16:27:05.871	-1.93191005	-0.1372930999999988	9.6693569
2026-03-26 16:27:06.113	-1.93191005	-0.1274864499999988	9.6693569
2026-03-26 16:27:06.369	-1.93191005	-0.1470997499999988	9.6497436
2026-03-26 16:27:06.609	-1.9417167	-0.1372930999999988	9.65955025
2026-03-26 16:27:06.873	-1.93191005	-0.1372930999999988	9.6497436
2026-03-26 16:27:07.113	-1.93191005	-0.1372930999999988	9.65955025
2026-03-26 16:27:07.375	-1.93191005	-0.1372930999999988	9.65955025
2026-03-26 16:27:07.610	-1.9417167	-0.1372930999999988	9.6497436
2026-03-26 16:27:07.872	-1.95152335	-0.1470997499999988	9.6301303
2026-03-26 16:27:08.109	-1.9417167	-0.1569063999999988	9.65955025
2026-03-26 16:27:08.369	-1.9221034000000001	-0.1470997499999988	9.639936950000001
2026-03-26 16:27:08.612	-1.93191005	-0.1274864499999988	9.6693569
2026-03-26 16:27:08.870	-1.91229675	-0.1470997499999988	9.65955025
2026-03-26 16:27:09.110	-1.9417167	-0.1274864499999988	9.65955025
2026-03-26 16:27:09.375	-1.9221034000000001	-0.1274864499999988	9.639936950000001
2026-03-26 16:27:09.611	-1.93191005	-0.1372930999999988	9.65955025
2026-03-26 16:27:09.872	-1.93191005	-0.1372930999999988	9.6693569
2026-03-26 16:27:10.110	-1.93191005	-0.1372930999999988	9.65955025
2026-03-26 16:27:10.373	-1.93191005	-0.1274864499999988	9.65955025
2026-03-26 16:27:10.612	-1.93191005	-0.1274864499999988	9.65955025
2026-03-26 16:27:10.872	-1.93191005	-0.1372930999999988	9.65955025
2026-03-26 16:27:11.112	-1.93191005	-0.1372930999999988	9.6497436
2026-03-26 16:27:11.371	-1.9417167	-0.1274864499999988	9.65955025
2026-03-26 16:27:11.612	-1.93191005	-0.1372930999999988	9.65955025
2026-03-26 16:27:11.875	-1.93191005	-0.1274864499999988	9.65955025
2026-03-26 16:27:12.112	-1.9417167	-0.1372930999999988	9.65955025
2026-03-26 16:27:12.369	-1.93191005	-0.1274864499999988	9.65955025
2026-03-26 16:27:12.610	-1.93191005	-0.1274864499999988	9.65955025
2026-03-26 16:27:12.877	-1.93191005	-0.1372930999999988	9.65955025
2026-03-26 16:27:13.110	-1.93191005	-0.1274864499999988	9.65955025
2026-03-26 16:27:13.369	-1.95152335	-0.11767979999999882	9.65955025
2026-03-26 16:27:13.611	-1.93191005	-0.1372930999999988	9.6497436
2026-03-26 16:27:13.872	-1.95152335	-0.11767979999999882	9.6497436
2026-03-26 16:27:14.112	-1.9417167	-0.11767979999999882	9.65955025
2026-03-26 16:27:14.370	-1.9417167	-0.1274864499999988	9.65955025
2026-03-26 16:27:14.611	-1.93191005	-0.1372930999999988	9.6497436
2026-03-26 16:27:14.870	-1.93191005	-0.1372930999999988	9.6497436
2026-03-26 16:27:15.111	-1.93191005	-0.1372930999999988	9.6497436
2026-03-26 16:27:15.369	-1.95152335	-0.1372930999999988	9.6497436
2026-03-26 16:27:15.612	-1.9221034000000001	-0.11767979999999882	9.6693569
2026-03-26 16:27:15.870	-1.95152335	-0.1274864499999988	9.6497436
2026-03-26 16:27:16.110	-1.9221034000000001	-0.1274864499999988	9.65955025
2026-03-26 16:27:16.369	-1.93191005	-0.1274864499999988	9.65955025
2026-03-26 16:27:16.611	-1.9417167	-0.1470997499999988	9.6497436
2026-03-26 16:27:16.872	-1.9221034000000001	-0.1470997499999988	9.65955025
2026-03-26 16:27:17.111	-1.9417167	-0.1274864499999988	9.65955025
2026-03-26 16:27:17.370	-1.93191005	-0.1274864499999988	9.6497436
2026-03-26 16:27:17.610	-1.9417167	-0.1274864499999988	9.65955025
2026-03-26 16:27:17.872	-1.9417167	-0.1274864499999988	9.65955025
2026-03-26 16:27:18.109	-1.93191005	-0.1274864499999988	9.65955025
2026-03-26 16:27:18.370	-1.9417167	-0.1372930999999988	9.65955025
2026-03-26 16:27:18.610	-1.93191005	-0.1372930999999988	9.65955025
2026-03-26 16:27:18.873	-1.93191005	-0.1274864499999988	9.65955025
2026-03-26 16:27:19.109	-1.93191005	-0.1372930999999988	9.6497436
2026-03-26 16:27:19.369	-1.93191005	-0.1372930999999988	9.65955025
2026-03-26 16:27:19.610	-1.93191005	-0.1274864499999988	9.65955025
2026-03-26 16:27:19.869	-1.93191005	-0.1274864499999988	9.65955025
2026-03-26 16:27:20.110	-1.93191005	-0.1372930999999988	9.65955025
2026-03-26 16:27:20.369	-1.9417167	-0.1274864499999988	9.65955025
2026-03-26 16:27:20.610	-1.93191005	-0.1372930999999988	9.6497436
2026-03-26 16:27:20.870	-1.93191005	-0.1372930999999988	9.65955025
2026-03-26 16:27:21.113	-1.93191005	-0.1372930999999988	9.65955025
2026-03-26 16:27:21.371	-1.93191005	-0.1274864499999988	9.65955025
2026-03-26 16:27:21.612	-1.93191005	-0.1274864499999988	9.65955025
2026-03-26 16:27:21.871	-1.93191005	-0.1372930999999988	9.65955025
2026-03-26 16:27:22.109	-1.9417167	-0.1274864499999988	9.65955025
2026-03-26 16:27:22.368	-1.93191005	-0.1274864499999988	9.6693569
2026-03-26 16:27:22.611	-1.93191005	-0.1274864499999988	9.6497436
2026-03-26 16:27:22.869	-1.93191005	-0.1274864499999988	9.65955025
2026-03-26 16:27:23.112	-1.9417167	-0.11767979999999882	9.65955025
2026-03-26 16:27:23.374	-1.91229675	-0.1765196999999988	9.639936950000001
2026-03-26 16:27:23.609	-1.91229675	-0.1961329999999988	9.639936950000001
2026-03-26 16:27:23.869	-1.93191005	-0.1569063999999988	9.639936950000001
2026-03-26 16:27:24.113	-1.9221034000000001	-0.1569063999999988	9.6497436
2026-03-26 16:27:24.371	-1.9221034000000001	-0.10787314999999882	9.67916355
2026-03-26 16:27:24.611	-1.9417167	-0.1372930999999988	9.65955025
2026-03-26 16:27:24.869	-1.9417167	-0.1274864499999988	9.65955025
2026-03-26 16:27:25.111	-1.93191005	-0.1274864499999988	9.65955025
2026-03-26 16:27:25.369	-1.8828768	-0.09806649999999882	9.62032365
2026-03-26 16:27:25.615	-1.96133	-0.1274864499999988	9.639936950000001
2026-03-26 16:27:25.876	-1.91229675	-0.1569063999999988	9.6497436
2026-03-26 16:27:26.110	-1.8828768	-0.2059396499999988	9.6301303
2026-03-26 16:27:26.371	-1.9221034000000001	-0.1569063999999988	9.6497436
2026-03-26 16:27:26.612	-1.9221034000000001	-0.1470997499999988	9.6497436
2026-03-26 16:27:26.871	-1.9417167	-0.11767979999999882	9.65955025
2026-03-26 16:27:27.110	-1.93191005	-0.1372930999999988	9.639936950000001
2026-03-26 16:27:27.369	-1.9417167	-0.11767979999999882	9.65955025
2026-03-26 16:27:27.612	-1.93191005	-0.1372930999999988	9.6497436
2026-03-26 16:27:27.871	-1.9221034000000001	-0.1372930999999988	9.65955025
2026-03-26 16:27:28.114	-1.93191005	-0.1470997499999988	9.6497436
2026-03-26 16:27:28.368	-1.93191005	-0.1372930999999988	9.65955025
2026-03-26 16:27:28.613	-1.93191005	-0.1274864499999988	9.6693569
2026-03-26 16:27:28.869	-1.9417167	-0.1274864499999988	9.65955025
2026-03-26 16:27:29.110	-1.9417167	-0.11767979999999882	9.6693569
2026-03-26 16:27:29.370	-1.95152335	-0.15690639999999884	9.5909037
2026-03-26 16:27:29.612	-1.9417167	-0.11767979999999882	9.65955025
2026-03-26 16:27:29.869	-1.91229675	-0.2059396499999988	9.62032365
2026-03-26 16:27:30.111	-1.95152335	-0.11767979999999882	9.65955025
2026-03-26 16:27:30.371	-2.38301595	0.1372931000000012	9.75761675
2026-03-26 16:27:30.612	-2.0005566	0.08825985000000117	9.551677100000001
2026-03-26 16:27:30.870	-1.8632635	-0.27458619999999884	9.7085835
2026-03-26 16:27:31.109	-1.79461695	-0.2451662499999988	9.6497436
2026-03-26 16:27:31.369	-1.9417167	-0.09806649999999882	9.67916355
2026-03-26 16:27:31.611	-1.9809433	-0.08825984999999882	9.6889702
2026-03-26 16:27:31.869	-2.06920315	-0.07845319999999882	9.6497436
2026-03-26 16:27:32.116	-1.93191005	-0.1274864499999988	9.65955025
2026-03-26 16:27:32.369	-1.93191005	-0.1667130499999988	9.6301303
2026-03-26 16:27:32.613	-1.9024901	-0.1863263499999988	9.6497436
2026-03-26 16:27:32.870	-1.9024901	-0.1470997499999988	9.639936950000001
2026-03-26 16:27:33.111	-2.01036325	-0.1569063999999988	9.6889702
2026-03-26 16:27:33.369	-2.08881645	0.4314926000000013	10.0420096
2026-03-26 16:27:33.612	-2.16726965	-0.0980664999999987	10.60098865
2026-03-26 16:27:33.869	-0.85317855	0.2745862000000013	10.20872265
2026-03-26 16:27:34.109	-0.8433719	0.37265270000000117	9.9047165
2026-03-26 16:27:34.370	-1.24544455	0.7551120500000013	10.0223963
2026-03-26 16:27:34.611	-0.12748645	0.29419950000000117	9.4928372
2026-03-26 16:27:34.875	0.7256921000000001	1.382737650000001	8.237586
2026-03-26 16:27:35.109	1.1179581	1.2846711500000012	9.50264385
2026-03-26 16:27:35.368	1.0395049	0.7649187000000012	9.4339973
2026-03-26 16:27:35.611	1.12776475	2.049589850000001	9.81645665
2026-03-26 16:27:35.869	0.85317855	1.863263500000001	8.67888525
2026-03-26 16:27:36.109	1.4709975	1.9711366500000012	10.11065615
2026-03-26 16:27:36.369	1.8632635	2.0888164500000013	9.8654899
2026-03-26 16:27:36.614	1.5494507	1.1179581000000012	9.3751574
2026-03-26 16:27:36.870	1.372931	0.7354987500000013	9.7281968
2026-03-26 16:27:37.112	1.4121576	0.5393657500000012	9.4536106
2026-03-26 16:27:37.370	1.12776475	0.7551120500000013	10.79712165
2026-03-26 16:27:37.612	1.0983448	0.08825985000000122	9.95374975
2026-03-26 16:27:37.871	1.5298374	0.7158854500000013	9.7085835
2026-03-26 16:27:38.110	2.7850886	1.1081514500000011	9.56148375
2026-03-26 16:27:38.368	2.69682875	1.5004174500000012	8.8455983
2026-03-26 16:27:38.611	3.10870805	0.08825985000000111	9.0809579
2026-03-26 16:27:38.869	3.89324005	-0.627625599999999	8.79656505
2026-03-26 16:27:39.109	4.0207265	-0.22555294999999892	8.8063717
2026-03-26 16:27:39.368	3.7853669	0.25497290000000117	9.36535075
2026-03-26 16:27:39.614	3.24600115	0.1667130500000012	9.5320638
2026-03-26 16:27:39.870	3.1577413	0.07845320000000107	8.6690786
2026-03-26 16:27:40.110	3.48136075	-0.382459349999999	8.60043205
2026-03-26 16:27:40.370	3.01064155	0.30400615000000114	9.18883105
2026-03-26 16:27:40.612	2.6674088	0.5687857000000012	9.60071035
2026-03-26 16:27:40.869	2.83412185	1.1767980000000011	9.65955025
2026-03-26 16:27:41.109	2.2163029	0.5099458000000011	9.18883105
2026-03-26 16:27:41.371	2.2751428000000002	0.18632635000000114	9.4928372
2026-03-26 16:27:41.611	1.569064	0.2059396500000012	9.73800345
2026-03-26 16:27:41.878	1.26505785	0.8531785500000013	9.7281968
2026-03-26 16:27:42.114	1.26505785	0.6668522000000012	9.9243298
2026-03-26 16:27:42.368	0.89240515	0.5393657500000011	9.3751574
2026-03-26 16:27:42.614	0.28439285000000003	1.1081514500000014	10.52253545
2026-03-26 16:27:42.870	0.6472389000000001	1.323897750000001	9.11037785
2026-03-26 16:27:43.111	0.3138128	2.118236400000001	8.81617835
2026-03-26 16:27:43.369	-0.06864655	1.5592573500000013	10.2969825
2026-03-26 16:27:43.610	-0.28439285000000003	1.9221034000000012	9.5320638
2026-03-26 16:27:43.869	-1.176798	1.6867438000000012	9.6693569
2026-03-26 16:27:44.113	-1.7848103	2.0888164500000013	9.8458766
2026-03-26 16:27:44.369	-2.0005566	1.931910050000001	9.75761675
2026-03-26 16:27:44.611	0.93163175	3.020448200000001	8.56120545
2026-03-26 16:27:44.869	0.8041453000000001	0.47071920000000117	9.69877685
2026-03-26 16:27:45.109	2.89296175	1.470997500000001	9.2967042
2026-03-26 16:27:45.371	2.34378935	0.7060788000000012	9.8262633
2026-03-26 16:27:45.609	1.04931155	-0.4609125499999986	11.28745415
2026-03-26 16:27:45.869	2.6870221	-1.000278299999999	8.384685750000001
2026-03-26 16:27:46.109	2.89296175	-1.3827376499999988	8.48275225
2026-03-26 16:27:46.369	1.36312435	-1.578870649999999	9.85568325
2026-03-26 16:27:46.616	1.7651970000000001	-0.7060787999999989	8.83579165
2026-03-26 16:27:46.869	-1.79461695	-1.1964112999999985	11.2580342
2026-03-26 16:27:47.109	-1.0591182	-0.9610516999999986	11.44436055
2026-03-26 16:27:47.369	-0.2941995	-0.7060787999999989	9.0613446
2026-03-26 16:27:47.609	2.3928226	-0.813951949999999	8.2768126
2026-03-26 16:27:47.870	1.6671305	-0.6276255999999988	10.0420096
2026-03-26 16:27:48.109	1.1571847	0.45110590000000117	9.9243298
2026-03-26 16:27:48.370	0.95124505	-0.3236194499999986	11.571847
2026-03-26 16:27:48.611	1.2160246	-0.20593964999999892	8.89463155
2026-03-26 16:27:48.870	2.95180165	-0.18632634999999878	9.95374975
2026-03-26 16:27:49.110	1.67693715	-0.24516624999999873	10.52253545
2026-03-26 16:27:49.370	0.8629852	-0.1961329999999989	9.22805765
2026-03-26 16:27:49.610	1.2748645	-0.3922659999999987	10.11065615
2026-03-26 16:27:49.870	1.18660465	-0.30400614999999875	10.16949605
2026-03-26 16:27:50.110	1.57887065	-0.22555294999999892	8.8063717
2026-03-26 16:27:50.368	1.7455837	-0.20593964999999878	9.81645665
2026-03-26 16:27:50.609	1.4906108	-0.3138127999999988	9.8458766
2026-03-26 16:27:50.872	1.3337044	-0.2647795499999988	9.77723005
2026-03-26 16:27:51.110	1.40235095	0.009806650000001174	9.58109705
2026-03-26 16:27:51.370	1.3533177	0.06864655000000121	9.8262633
2026-03-26 16:27:51.610	1.08853815	1.2033701897924109e-15	9.8262633
2026-03-26 16:27:51.870	1.06892485	-0.0784531999999988	9.7870367
2026-03-26 16:27:52.110	1.0983448	-0.1569063999999988	9.65955025
2026-03-26 16:27:52.368	0.99047165	-0.10787314999999878	9.9047165
2026-03-26 16:27:52.616	0.73549875	0.2843928500000012	9.69877685
2026-03-26 16:27:52.869	0.75511205	0.009806650000001204	9.83606995
2026-03-26 16:27:53.109	0.93163175	0.07845320000000118	9.69877685
2026-03-26 16:27:53.372	0.81395195	0.029419950000001215	9.91452315
2026-03-26 16:27:53.611	0.8237586	0.15690640000000122	9.83606995
2026-03-26 16:27:53.869	0.85317855	0.3432327500000012	9.87529655
2026-03-26 16:27:54.109	0.85317855	0.6668522000000012	9.80665
2026-03-26 16:27:54.369	1.2160246	0.5883990000000012	9.89490985
2026-03-26 16:27:54.614	1.2356379	0.5785923500000012	9.6889702
2026-03-26 16:27:54.869	1.5298374	0.07845320000000122	10.0223963
2026-03-26 16:27:55.109	1.3140911	0.3824593500000012	9.5320638
2026-03-26 16:27:55.370	2.10842975	-1.1375713999999988	9.42419065
2026-03-26 16:27:55.611	2.93218835	-0.7158854499999989	9.40457735
2026-03-26 16:27:55.869	3.5107807	-0.41187929999999895	8.58081875
2026-03-26 16:27:56.109	1.71616375	0.2255529500000012	9.77723005
2026-03-26 16:27:56.368	1.3337044	-0.7453053999999988	9.9439431
2026-03-26 16:27:56.610	1.2748645	-0.6962721499999989	9.639936950000001
2026-03-26 16:27:56.869	1.38273765	-0.33342609999999884	9.414384
2026-03-26 16:27:57.109	3.2558078	-0.03922659999999894	8.65927195
2026-03-26 16:27:57.371	2.3732093	-0.35303939999999884	9.44380395
2026-03-26 16:27:57.610	-1.18660465	-0.6472388999999987	9.85568325
2026-03-26 16:27:57.869	-0.08825985	-0.06864654999999877	10.11065615
2026-03-26 16:27:58.115	-0.8433719	-0.42168594999999875	10.52253545
2026-03-26 16:27:58.369	-0.36284605000000003	0.01961330000000111	9.0809579
2026-03-26 16:27:58.613	0.24516625	0.10787315000000118	9.7281968
2026-03-26 16:27:58.869	0.24516625	0.1274864500000012	9.73800345
2026-03-26 16:27:59.114	0.06864655	0.23535960000000122	10.0420096
2026-03-26 16:27:59.369	-0.10787315	0.3628460500000012	9.85568325
2026-03-26 16:27:59.612	-0.02941995	0.20593965000000122	10.002783
2026-03-26 16:27:59.869	-0.02941995	0.5099458000000012	9.65955025
2026-03-26 16:28:00.112	0.04903325	0.2843928500000012	9.71839015
2026-03-26 16:28:00.370	-0.16671305	0.37265270000000117	9.8851032
2026-03-26 16:28:00.609	-0.18632635	-0.05883989999999886	9.28689755
2026-03-26 16:28:00.869	-0.59820565	0.24516625000000128	10.4931155
2026-03-26 16:28:01.109	-1.20621795	0.7943386500000013	9.95374975
2026-03-26 16:28:01.369	-0.8629852	0.5295591000000012	9.4732239
2026-03-26 16:28:01.612	-0.588399	0.41187930000000117	9.93413645
2026-03-26 16:28:01.872	-0.50013915	0.22555295000000122	9.95374975
2026-03-26 16:28:02.109	-0.4707192	0.8825985000000012	9.42419065
2026-03-26 16:28:02.369	-0.5099458	0.9218251000000013	10.01258965
2026-03-26 16:28:02.616	-0.6080123	0.7943386500000013	9.8458766
2026-03-26 16:28:02.872	-0.16671305	0.8041453000000012	9.5320638
2026-03-26 16:28:03.110	-0.9414384	-0.8041452999999986	11.2580342
2026-03-26 16:28:03.370	0.0980665	0.1569064000000011	9.012311350000001
2026-03-26 16:28:03.614	-0.30400615	0.7453054000000011	9.610517
2026-03-26 16:28:03.871	0.26477955	1.4906108000000011	9.7478101
2026-03-26 16:28:04.109	-0.392266	0.8924051500000013	9.93413645
2026-03-26 16:28:04.368	-0.6864655	0.8139519500000011	9.4732239
2026-03-26 16:28:04.611	-1.30428445	0.27458620000000106	8.67888525
2026-03-26 16:28:04.870	-2.2555295	-0.0490332499999988	9.80665
2026-03-26 16:28:05.109	-2.99102825	0.2549729000000012	9.8262633
2026-03-26 16:28:05.369	-3.1773546	-0.23535959999999878	9.9047165
2026-03-26 16:28:05.609	-3.08909475	-0.1961329999999988	9.7281968
2026-03-26 16:28:05.869	-3.16754795	-0.1863263499999988	9.5712904
2026-03-26 16:28:06.112	-3.6284605	-0.5099457999999989	9.26728425
2026-03-26 16:28:06.373	-2.67721545	-0.009806649999998836	9.50264385
2026-03-26 16:28:06.611	-2.71644205	-0.41187929999999884	9.50264385
2026-03-26 16:28:06.870	-2.5693423	-0.31381279999999884	9.4536106
2026-03-26 16:28:07.108	-2.61837555	-0.3432327499999988	9.50264385
2026-03-26 16:28:07.368	-2.5889556000000002	-0.31381279999999884	9.4928372
2026-03-26 16:28:07.610	-2.5889556000000002	-0.31381279999999884	9.4928372
2026-03-26 16:28:07.869	-2.6085689	-0.3236194499999988	9.4928372
2026-03-26 16:28:08.108	-2.59876225	-0.31381279999999884	9.4928372
2026-03-26 16:28:08.368	-2.59876225	-0.31381279999999884	9.4928372
2026-03-26 16:28:08.613	-2.6085689	-0.3236194499999988	9.4928372
2026-03-26 16:28:08.872	-2.59876225	-0.3236194499999988	9.4928372
2026-03-26 16:28:09.108	-2.59876225	-0.3236194499999988	9.4928372
2026-03-26 16:28:09.368	-2.6085689	-0.3236194499999988	9.4928372
2026-03-26 16:28:09.611	-2.59876225	-0.31381279999999884	9.4928372
2026-03-26 16:28:09.869	-2.6085689	-0.3236194499999988	9.4928372
2026-03-26 16:28:10.109	-2.59876225	-0.3236194499999988	9.4928372
2026-03-26 16:28:10.374	-2.59876225	-0.31381279999999884	9.4928372
2026-03-26 16:28:10.610	-2.6085689	-0.31381279999999884	9.4928372
2026-03-26 16:28:10.872	-2.6085689	-0.3236194499999988	9.4928372
2026-03-26 16:28:11.108	-2.6085689	-0.3236194499999988	9.4928372
2026-03-26 16:28:11.370	-2.6085689	-0.3236194499999988	9.50264385
2026-03-26 16:28:11.610	-2.59876225	-0.31381279999999884	9.4928372
2026-03-26 16:28:11.869	-2.6085689	-0.3236194499999988	9.50264385
2026-03-26 16:28:12.109	-2.6085689	-0.3236194499999988	9.50264385
2026-03-26 16:28:12.371	-2.59876225	-0.3236194499999988	9.4928372
2026-03-26 16:28:12.611	-2.59876225	-0.3236194499999988	9.4928372
2026-03-26 16:28:12.871	-2.59876225	-0.31381279999999884	9.4928372
2026-03-26 16:28:13.108	-2.59876225	-0.31381279999999884	9.4928372
2026-03-26 16:28:13.372	-2.59876225	-0.31381279999999884	9.4928372
2026-03-26 16:28:13.615	-2.59876225	-0.3236194499999988	9.4928372
2026-03-26 16:28:13.871	-2.59876225	-0.3236194499999988	9.4928372
2026-03-26 16:28:14.108	-2.59876225	-0.31381279999999884	9.50264385
2026-03-26 16:28:14.368	-2.59876225	-0.3236194499999988	9.4928372
2026-03-26 16:28:14.612	-2.59876225	-0.31381279999999884	9.48303055
2026-03-26 16:28:14.869	-2.59876225	-0.3236194499999988	9.4928372
2026-03-26 16:28:15.109	-2.59876225	-0.31381279999999884	9.4928372
2026-03-26 16:28:15.369	-2.59876225	-0.30400614999999886	9.50264385
2026-03-26 16:28:15.623	-2.6085689	-0.3236194499999988	9.4928372
2026-03-26 16:28:15.874	-2.59876225	-0.3236194499999988	9.4928372
2026-03-26 16:28:16.110	-2.6085689	-0.3236194499999988	9.48303055
2026-03-26 16:28:16.368	-2.59876225	-0.31381279999999884	9.4928372
2026-03-26 16:28:16.610	-2.59876225	-0.31381279999999884	9.4928372
2026-03-26 16:28:16.876	-2.59876225	-0.3236194499999988	9.4928372
2026-03-26 16:28:17.112	-2.6085689	-0.3236194499999988	9.4928372
2026-03-26 16:28:17.368	-2.59876225	-0.3236194499999988	9.4928372
2026-03-26 16:28:17.612	-2.6085689	-0.33342609999999884	9.4928372
2026-03-26 16:28:17.871	-2.59876225	-0.31381279999999884	9.4928372
2026-03-26 16:28:18.109	-2.59876225	-0.3236194499999988	9.4928372
2026-03-26 16:28:18.368	-2.59876225	-0.3236194499999988	9.4928372
2026-03-26 16:28:18.610	-2.6085689	-0.29419949999999884	9.4928372
2026-03-26 16:28:18.869	-2.59876225	-0.3236194499999988	9.4928372
2026-03-26 16:28:19.109	-2.6085689	-0.3236194499999988	9.4928372
2026-03-26 16:28:19.370	-2.6085689	-0.3236194499999988	9.4928372
2026-03-26 16:28:19.612	-2.59876225	-0.3236194499999988	9.4928372
2026-03-26 16:28:19.870	-2.59876225	-0.3236194499999988	9.4928372
2026-03-26 16:28:20.112	-2.67721545	-0.29419949999999884	9.463417250000001
2026-03-26 16:28:20.368	-2.59876225	-0.25497289999999884	9.4928372
2026-03-26 16:28:20.614	-2.61837555	-0.3432327499999988	9.4928372
2026-03-26 16:28:20.872	-2.59876225	-0.3236194499999988	9.4928372
2026-03-26 16:28:21.108	-2.59876225	-0.3236194499999988	9.4928372
2026-03-26 16:28:21.368	-2.57914895	-0.33342609999999884	9.50264385
2026-03-26 16:28:21.612	-2.59876225	-0.30400614999999886	9.4928372
2026-03-26 16:28:21.875	-2.59876225	-0.30400614999999886	9.50264385
2026-03-26 16:28:22.111	-2.6085689	-0.30400614999999886	9.4928372
2026-03-26 16:28:22.368	-2.59876225	-0.31381279999999884	9.48303055
2026-03-26 16:28:22.616	-2.6085689	-0.3236194499999988	9.4928372
2026-03-26 16:28:22.875	-2.59876225	-0.31381279999999884	9.4928372
2026-03-26 16:28:23.114	-2.549729	-0.3628460499999988	9.5124505
2026-03-26 16:28:23.369	-2.59876225	-0.29419949999999884	9.4928372
2026-03-26 16:28:23.611	-2.5889556000000002	-0.31381279999999884	9.4928372
2026-03-26 16:28:23.871	-2.59876225	-0.31381279999999884	9.4928372
2026-03-26 16:28:24.108	-2.59876225	-0.3236194499999988	9.4928372
2026-03-26 16:28:24.371	-2.59876225	-0.3236194499999988	9.4928372
2026-03-26 16:28:24.611	-2.59876225	-0.3236194499999988	9.4928372
2026-03-26 16:28:24.868	-2.59876225	-0.3236194499999988	9.4928372
2026-03-26 16:28:25.112	-2.6085689	-0.33342609999999884	9.4928372
2026-03-26 16:28:25.368	-2.59876225	-0.30400614999999886	9.4928372
2026-03-26 16:28:25.611	-2.59876225	-0.31381279999999884	9.4928372
2026-03-26 16:28:25.868	-2.59876225	-0.3236194499999988	9.4928372
2026-03-26 16:28:26.108	-2.59876225	-0.30400614999999886	9.4928372
2026-03-26 16:28:26.369	-2.59876225	-0.3236194499999988	9.4928372
2026-03-26 16:28:26.610	-2.59876225	-0.3236194499999988	9.4928372
2026-03-26 16:28:26.869	-2.6085689	-0.3236194499999988	9.4928372
2026-03-26 16:28:27.111	-2.59876225	-0.3236194499999988	9.4928372
2026-03-26 16:28:27.368	-2.59876225	-0.3236194499999988	9.4928372
2026-03-26 16:28:27.613	-2.59876225	-0.3236194499999988	9.4928372
2026-03-26 16:28:27.868	-2.6085689	-0.30400614999999886	9.4928372
2026-03-26 16:28:28.111	-2.59876225	-0.30400614999999886	9.4928372
2026-03-26 16:28:28.368	-2.59876225	-0.33342609999999884	9.4928372
2026-03-26 16:28:28.611	-2.59876225	-0.30400614999999886	9.4928372
2026-03-26 16:28:28.869	-2.6085689	-0.31381279999999884	9.4928372
2026-03-26 16:28:29.109	-2.6085689	-0.3236194499999988	9.48303055
2026-03-26 16:28:29.368	-2.5889556000000002	-0.31381279999999884	9.4928372
2026-03-26 16:28:29.614	-2.5889556000000002	-0.3432327499999988	9.4928372
2026-03-26 16:28:29.869	-2.5889556000000002	-0.3236194499999988	9.4928372
2026-03-26 16:28:30.109	-2.61837555	-0.33342609999999884	9.4928372
2026-03-26 16:28:30.368	-2.59876225	-0.33342609999999884	9.50264385
2026-03-26 16:28:30.609	-2.6085689	-0.31381279999999884	9.4928372
2026-03-26 16:28:30.868	-2.57914895	-0.31381279999999884	9.4928372
2026-03-26 16:28:31.113	-2.6085689	-0.33342609999999884	9.50264385
2026-03-26 16:28:31.368	-2.59876225	-0.3236194499999988	9.4928372
2026-03-26 16:28:31.609	-2.5889556000000002	-0.33342609999999884	9.4928372
2026-03-26 16:28:31.868	-2.59876225	-0.3236194499999988	9.4928372
2026-03-26 16:28:32.111	-2.59876225	-0.3236194499999988	9.4928372
2026-03-26 16:28:32.369	-2.59876225	-0.3236194499999988	9.4928372
2026-03-26 16:28:32.610	-2.6085689	-0.3236194499999988	9.48303055
2026-03-26 16:28:32.869	-2.59876225	-0.3236194499999988	9.4928372
2026-03-26 16:28:33.109	-2.59876225	-0.3236194499999988	9.4928372
2026-03-26 16:28:33.368	-2.6085689	-0.3236194499999988	9.50264385
2026-03-26 16:28:33.612	-2.59876225	-0.3236194499999988	9.50264385
2026-03-26 16:28:33.868	-2.59876225	-0.3236194499999988	9.4928372
2026-03-26 16:28:34.109	-2.59876225	-0.3236194499999988	9.4928372
2026-03-26 16:28:34.368	-2.59876225	-0.3236194499999988	9.4928372
2026-03-26 16:28:34.608	-2.59876225	-0.31381279999999884	9.4928372
2026-03-26 16:28:34.870	-2.5889556000000002	-0.30400614999999886	9.50264385
2026-03-26 16:28:35.108	-2.59876225	-0.3236194499999988	9.50264385
2026-03-26 16:28:35.369	-2.59876225	-0.3236194499999988	9.4928372
2026-03-26 16:28:35.611	-2.59876225	-0.3236194499999988	9.4928372
2026-03-26 16:28:35.874	-2.59876225	-0.3236194499999988	9.4928372
2026-03-26 16:28:36.110	-2.59876225	-0.31381279999999884	9.4928372
2026-03-26 16:28:36.368	-2.59876225	-0.3432327499999988	9.4928372
2026-03-26 16:28:36.610	-2.59876225	-0.33342609999999884	9.4928372
2026-03-26 16:28:36.871	-2.5889556000000002	-0.33342609999999884	9.50264385
2026-03-26 16:28:37.108	-2.59876225	-0.33342609999999884	9.4928372
2026-03-26 16:28:37.367	-2.6085689	-0.3236194499999988	9.4928372
2026-03-26 16:28:37.615	-2.6085689	-0.33342609999999884	9.4928372
2026-03-26 16:28:37.872	-2.59876225	-0.31381279999999884	9.4928372
2026-03-26 16:28:38.108	-2.59876225	-0.3236194499999988	9.4928372
2026-03-26 16:28:38.367	-2.59876225	-0.3236194499999988	9.4928372
2026-03-26 16:28:38.610	-2.59876225	-0.3236194499999988	9.4928372
2026-03-26 16:28:38.869	-2.6085689	-0.3236194499999988	9.50264385
2026-03-26 16:28:39.115	-2.59876225	-0.3236194499999988	9.4928372
2026-03-26 16:28:39.367	-2.59876225	-0.3236194499999988	9.4928372
2026-03-26 16:28:39.612	-2.59876225	-0.3236194499999988	9.4928372
2026-03-26 16:28:39.869	-2.59876225	-0.31381279999999884	9.4928372
2026-03-26 16:28:40.109	-2.6085689	-0.3236194499999988	9.4928372
2026-03-26 16:28:40.370	-2.59876225	-0.3236194499999988	9.4928372
2026-03-26 16:28:40.610	-2.59876225	-0.3236194499999988	9.4928372
2026-03-26 16:28:40.871	-2.6085689	-0.3236194499999988	9.4928372
2026-03-26 16:28:41.111	-2.6085689	-0.3236194499999988	9.4928372
2026-03-26 16:28:41.368	-2.6085689	-0.3236194499999988	9.50264385
2026-03-26 16:28:41.612	-2.59876225	-0.3236194499999988	9.4928372
2026-03-26 16:28:41.869	-2.59876225	-0.3236194499999988	9.50264385
2026-03-26 16:28:42.108	-2.59876225	-0.3236194499999988	9.4928372
2026-03-26 16:28:42.368	-2.5889556000000002	-0.31381279999999884	9.48303055
2026-03-26 16:28:42.611	-2.59876225	-0.33342609999999884	9.4928372
2026-03-26 16:28:42.871	-2.59876225	-0.33342609999999884	9.4928372
2026-03-26 16:28:43.108	-2.59876225	-0.3236194499999988	9.4928372
2026-03-26 16:28:43.368	-2.59876225	-0.3236194499999988	9.4928372
2026-03-26 16:28:43.609	-2.6085689	-0.3236194499999988	9.50264385
2026-03-26 16:28:43.868	-2.59876225	-0.3236194499999988	9.4928372
2026-03-26 16:28:44.108	-2.59876225	-0.3236194499999988	9.4928372
2026-03-26 16:28:44.368	-2.59876225	-0.3236194499999988	9.4928372
2026-03-26 16:28:44.612	-2.59876225	-0.3236194499999988	9.4928372
2026-03-26 16:28:44.872	-2.59876225	-0.31381279999999884	9.4928372
2026-03-26 16:28:45.108	-2.6085689	-0.3236194499999988	9.50264385
2026-03-26 16:28:45.368	-2.59876225	-0.31381279999999884	9.50264385
2026-03-26 16:28:45.612	-2.59876225	-0.31381279999999884	9.4928372
2026-03-26 16:28:45.875	-2.59876225	-0.3236194499999988	9.4928372
2026-03-26 16:28:46.109	-2.59876225	-0.3236194499999988	9.4928372
2026-03-26 16:28:46.375	-2.59876225	-0.3236194499999988	9.4928372
2026-03-26 16:28:46.614	-2.59876225	-0.3236194499999988	9.4928372
2026-03-26 16:28:46.869	-2.59876225	-0.3236194499999988	9.4928372
2026-03-26 16:28:47.109	-2.59876225	-0.3236194499999988	9.4928372
2026-03-26 16:28:47.368	-2.5889556000000002	-0.3236194499999988	9.50264385
2026-03-26 16:28:47.608	-2.59876225	-0.3236194499999988	9.4928372
2026-03-26 16:28:47.869	-2.59876225	-0.3236194499999988	9.4928372
2026-03-26 16:28:48.111	-2.59876225	-0.3236194499999988	9.4928372
2026-03-26 16:28:48.370	-2.59876225	-0.3236194499999988	9.50264385
2026-03-26 16:28:48.610	-2.59876225	-0.3236194499999988	9.4928372
2026-03-26 16:28:48.869	-2.59876225	-0.3236194499999988	9.4928372
2026-03-26 16:28:49.109	-2.59876225	-0.3236194499999988	9.4928372
2026-03-26 16:28:49.368	-2.59876225	-0.3236194499999988	9.4928372
2026-03-26 16:28:49.608	-2.59876225	-0.3236194499999988	9.4928372
2026-03-26 16:28:49.871	-2.5889556000000002	-0.31381279999999884	9.4928372
2026-03-26 16:28:50.109	-2.59876225	-0.3236194499999988	9.4928372
2026-03-26 16:28:50.368	-2.59876225	-0.3236194499999988	9.4928372
2026-03-26 16:28:50.609	-2.6085689	-0.3236194499999988	9.4928372
2026-03-26 16:28:50.872	-2.59876225	-0.31381279999999884	9.4928372
2026-03-26 16:28:51.108	-2.59876225	-0.3236194499999988	9.4928372
2026-03-26 16:28:51.368	-2.6085689	-0.3236194499999988	9.4928372
2026-03-26 16:28:51.608	-2.59876225	-0.3236194499999988	9.4928372
2026-03-26 16:28:51.874	-2.59876225	-0.3236194499999988	9.4928372
2026-03-26 16:28:52.108	-2.59876225	-0.3236194499999988	9.4928372
2026-03-26 16:28:52.368	-2.59876225	-0.3236194499999988	9.4928372
2026-03-26 16:28:52.611	-2.59876225	-0.3236194499999988	9.4928372
2026-03-26 16:28:52.868	-2.59876225	-0.3236194499999988	9.4928372
2026-03-26 16:28:53.108	-2.59876225	-0.3236194499999988	9.4928372
2026-03-26 16:28:53.368	-2.57914895	-0.3236194499999988	9.4928372
2026-03-26 16:28:53.608	-2.59876225	-0.3236194499999988	9.4928372
2026-03-26 16:28:53.875	-2.59876225	-0.3236194499999988	9.4928372
2026-03-26 16:28:54.109	-2.6085689	-0.3236194499999988	9.4928372
2026-03-26 16:28:54.376	-2.59876225	-0.3236194499999988	9.4928372
2026-03-26 16:28:54.610	-2.59876225	-0.3236194499999988	9.4928372
2026-03-26 16:28:54.868	-2.59876225	-0.3236194499999988	9.4928372
2026-03-26 16:28:55.112	-2.59876225	-0.3236194499999988	9.4928372
2026-03-26 16:28:55.368	-2.59876225	-0.3236194499999988	9.4928372
2026-03-26 16:28:55.608	-2.59876225	-0.33342609999999884	9.4928372
2026-03-26 16:28:55.868	-2.59876225	-0.3236194499999988	9.4928372
2026-03-26 16:28:56.108	-2.59876225	-0.3236194499999988	9.4928372
2026-03-26 16:28:56.368	-2.5889556000000002	-0.31381279999999884	9.4928372
2026-03-26 16:28:56.608	-2.59876225	-0.3236194499999988	9.50264385
2026-03-26 16:28:56.868	-2.59876225	-0.3236194499999988	9.4928372
2026-03-26 16:28:57.109	-2.59876225	-0.31381279999999884	9.4928372
2026-03-26 16:28:57.369	-2.6085689	-0.3236194499999988	9.50264385
2026-03-26 16:28:57.616	-2.59876225	-0.31381279999999884	9.4928372
2026-03-26 16:28:57.867	-2.6085689	-0.3236194499999988	9.50264385
2026-03-26 16:28:58.108	-2.6085689	-0.3236194499999988	9.4928372
2026-03-26 16:28:58.368	-2.59876225	-0.3236194499999988	9.4928372
2026-03-26 16:28:58.608	-2.59876225	-0.3236194499999988	9.4928372
2026-03-26 16:28:58.868	-2.59876225	-0.33342609999999884	9.4928372
2026-03-26 16:28:59.108	-2.5889556000000002	-0.3236194499999988	9.4928372
2026-03-26 16:28:59.367	-2.5889556000000002	-0.33342609999999884	9.4928372
2026-03-26 16:28:59.617	-2.59876225	-0.3236194499999988	9.4928372
2026-03-26 16:28:59.868	-2.59876225	-0.3236194499999988	9.4928372
2026-03-26 16:29:00.114	-2.59876225	-0.33342609999999884	9.4928372
2026-03-26 16:29:00.368	-2.59876225	-0.3236194499999988	9.4928372
2026-03-26 16:29:00.611	-2.59876225	-0.3236194499999988	9.4928372
2026-03-26 16:29:00.869	-2.6085689	-0.31381279999999884	9.4928372
2026-03-26 16:29:01.108	-2.59876225	-0.31381279999999884	9.4928372
2026-03-26 16:29:01.369	-2.59876225	-0.3236194499999988	9.4928372
2026-03-26 16:29:01.608	-2.59876225	-0.3236194499999988	9.4928372
2026-03-26 16:29:01.869	-2.59876225	-0.3236194499999988	9.4928372
2026-03-26 16:29:02.108	-2.6085689	-0.3236194499999988	9.4928372
2026-03-26 16:29:02.370	-2.6085689	-0.33342609999999884	9.4928372
2026-03-26 16:29:02.612	-2.61837555	-0.3236194499999988	9.50264385
2026-03-26 16:29:02.867	-2.59876225	-0.33342609999999884	9.4928372
2026-03-26 16:29:03.108	-2.59876225	-0.33342609999999884	9.4928372
2026-03-26 16:29:03.368	-2.59876225	-0.31381279999999884	9.4928372
2026-03-26 16:29:03.609	-2.59876225	-0.3236194499999988	9.4928372
2026-03-26 16:29:03.874	-2.6085689	-0.33342609999999884	9.4928372
2026-03-26 16:29:04.113	-2.59876225	-0.33342609999999884	9.4928372
2026-03-26 16:29:04.368	-2.59876225	-0.3236194499999988	9.4928372
2026-03-26 16:29:04.608	-2.6085689	-0.3236194499999988	9.4928372
2026-03-26 16:29:04.870	-2.59876225	-0.3236194499999988	9.4928372
2026-03-26 16:29:05.111	-2.6085689	-0.3236194499999988	9.4928372
2026-03-26 16:29:05.367	-2.59876225	-0.3236194499999988	9.50264385
2026-03-26 16:29:05.609	-2.59876225	-0.3236194499999988	9.4928372
2026-03-26 16:29:05.876	-2.59876225	-0.3236194499999988	9.50264385
2026-03-26 16:29:06.109	-2.59876225	-0.3236194499999988	9.4928372
2026-03-26 16:29:06.371	-2.59876225	-0.3236194499999988	9.4928372
2026-03-26 16:29:06.609	-2.59876225	-0.33342609999999884	9.50264385
2026-03-26 16:29:06.869	-2.59876225	-0.3236194499999988	9.4928372
2026-03-26 16:29:07.109	-2.6085689	-0.3236194499999988	9.4928372
2026-03-26 16:29:07.367	-2.59876225	-0.3432327499999988	9.50264385
2026-03-26 16:29:07.613	-2.59876225	-0.29419949999999884	9.4928372
2026-03-26 16:29:07.868	-2.59876225	-0.33342609999999884	9.4928372
2026-03-26 16:29:08.108	-2.59876225	-0.3236194499999988	9.4928372
2026-03-26 16:29:08.367	-2.59876225	-0.3236194499999988	9.4928372
2026-03-26 16:29:08.609	-2.6085689	-0.3236194499999988	9.4928372
2026-03-26 16:29:08.867	-2.6085689	-0.3236194499999988	9.4928372
2026-03-26 16:29:09.108	-2.59876225	-0.3236194499999988	9.4928372
2026-03-26 16:29:09.367	-2.59876225	-0.3236194499999988	9.4928372
2026-03-26 16:29:09.616	-2.59876225	-0.3236194499999988	9.4928372
2026-03-26 16:29:09.868	-2.59876225	-0.3236194499999988	9.4928372
2026-03-26 16:29:10.108	-2.59876225	-0.3236194499999988	9.50264385
2026-03-26 16:29:10.368	-2.6085689	-0.3236194499999988	9.4928372
2026-03-26 16:29:10.608	-2.59876225	-0.3236194499999988	9.4928372
2026-03-26 16:29:10.870	-2.59876225	-0.3236194499999988	9.50264385
2026-03-26 16:29:11.108	-2.59876225	-0.3236194499999988	9.4928372
2026-03-26 16:29:11.368	-2.59876225	-0.3236194499999988	9.4928372
2026-03-26 16:29:11.609	-2.59876225	-0.3236194499999988	9.4928372
2026-03-26 16:29:11.878	-2.59876225	-0.3236194499999988	9.4928372
2026-03-26 16:29:12.108	-2.59876225	-0.3236194499999988	9.4928372
2026-03-26 16:29:12.367	-2.6085689	-0.3236194499999988	9.4928372
2026-03-26 16:29:12.612	-2.59876225	-0.31381279999999884	9.4928372
2026-03-26 16:29:12.868	-2.59876225	-0.3236194499999988	9.4928372
2026-03-26 16:29:13.108	-2.59876225	-0.3236194499999988	9.4928372
2026-03-26 16:29:13.367	-2.6085689	-0.33342609999999884	9.50264385
2026-03-26 16:29:13.610	-2.6085689	-0.33342609999999884	9.4928372
2026-03-26 16:29:13.868	-2.59876225	-0.3236194499999988	9.4928372
2026-03-26 16:29:14.109	-2.6085689	-0.3432327499999988	9.4928372
2026-03-26 16:29:14.367	-2.5889556000000002	-0.33342609999999884	9.50264385
2026-03-26 16:29:14.608	-2.6085689	-0.35303939999999884	9.4928372
2026-03-26 16:29:14.868	-2.57914895	-0.29419949999999884	9.50264385
2026-03-26 16:29:15.109	-2.6281822	-0.3236194499999988	9.48303055
2026-03-26 16:29:15.370	-2.59876225	-0.31381279999999884	9.4928372
2026-03-26 16:29:15.610	-2.59876225	-0.3432327499999988	9.4928372
2026-03-26 16:29:15.867	-2.59876225	-0.31381279999999884	9.4928372
2026-03-26 16:29:16.108	-2.5889556000000002	-0.29419949999999884	9.4928372
2026-03-26 16:29:16.368	-2.6085689	-0.3432327499999988	9.4928372
2026-03-26 16:29:16.613	-2.6085689	-0.30400614999999886	9.48303055
2026-03-26 16:29:16.868	-2.59876225	-0.3236194499999988	9.4928372
2026-03-26 16:29:17.108	-2.6085689	-0.29419949999999884	9.50264385
2026-03-26 16:29:17.368	-2.6281822	-0.3432327499999988	9.48303055
2026-03-26 16:29:17.608	-2.6281822	-0.3236194499999988	9.50264385
2026-03-26 16:29:17.867	-2.5889556000000002	-0.30400614999999886	9.4928372
2026-03-26 16:29:18.115	-2.59876225	-0.3236194499999988	9.4928372
2026-03-26 16:29:18.368	-2.59876225	-0.3236194499999988	9.50264385
2026-03-26 16:29:18.610	-2.59876225	-0.3236194499999988	9.4928372
2026-03-26 16:29:18.870	-2.6085689	-0.33342609999999884	9.4928372
2026-03-26 16:29:19.111	-2.59876225	-0.3236194499999988	9.4928372
2026-03-26 16:29:19.367	-2.59876225	-0.3236194499999988	9.4928372
2026-03-26 16:29:19.610	-2.59876225	-0.3236194499999988	9.4928372
2026-03-26 16:29:19.868	-2.59876225	-0.3236194499999988	9.50264385
2026-03-26 16:29:20.108	-2.59876225	-0.3236194499999988	9.4928372
2026-03-26 16:29:20.368	-2.59876225	-0.3236194499999988	9.4928372
2026-03-26 16:29:20.609	-2.59876225	-0.3236194499999988	9.4928372
2026-03-26 16:29:20.872	-2.59876225	-0.3236194499999988	9.4928372
2026-03-26 16:29:21.113	-2.59876225	-0.33342609999999884	9.4928372
2026-03-26 16:29:21.367	-2.59876225	-0.3236194499999988	9.4928372
2026-03-26 16:29:21.608	-2.59876225	-0.3236194499999988	9.4928372
2026-03-26 16:29:21.867	-2.59876225	-0.3236194499999988	9.4928372
2026-03-26 16:29:22.109	-2.59876225	-0.33342609999999884	9.4928372
2026-03-26 16:29:22.368	-2.59876225	-0.33342609999999884	9.4928372
2026-03-26 16:29:22.615	-2.59876225	-0.3432327499999988	9.50264385
2026-03-26 16:29:22.868	-2.59876225	-0.3236194499999988	9.4928372
2026-03-26 16:29:23.109	-2.59876225	-0.3432327499999988	9.4928372
2026-03-26 16:29:23.367	-2.6085689	-0.3432327499999988	9.4928372
2026-03-26 16:29:23.610	-2.6085689	-0.3432327499999988	9.4928372
2026-03-26 16:29:23.867	-2.6085689	-0.31381279999999884	9.4928372
2026-03-26 16:29:24.109	-2.59876225	-0.31381279999999884	9.4928372
2026-03-26 16:29:24.367	-2.6085689	-0.3236194499999988	9.50264385
2026-03-26 16:29:24.608	-2.6085689	-0.3236194499999988	9.4928372
2026-03-26 16:29:24.867	-2.59876225	-0.33342609999999884	9.4928372
2026-03-26 16:29:25.108	-2.5889556000000002	-0.3236194499999988	9.4928372
2026-03-26 16:29:25.367	-2.6085689	-0.3236194499999988	9.4928372
2026-03-26 16:29:25.611	-2.59876225	-0.3236194499999988	9.4928372
2026-03-26 16:29:25.871	-2.59876225	-0.3236194499999988	9.4928372
2026-03-26 16:29:26.107	-2.59876225	-0.33342609999999884	9.4928372
2026-03-26 16:29:26.367	-2.61837555	-0.33342609999999884	9.4928372
2026-03-26 16:29:26.609	-2.5889556000000002	-0.33342609999999884	9.48303055
2026-03-26 16:29:26.868	-2.59876225	-0.3236194499999988	9.4928372
2026-03-26 16:29:27.108	-2.59876225	-0.3236194499999988	9.50264385
2026-03-26 16:29:27.368	-2.6085689	-0.3236194499999988	9.4928372
2026-03-26 16:29:27.608	-2.59876225	-0.26477954999999886	9.50264385
2026-03-26 16:29:27.868	-2.59876225	-0.35303939999999884	9.4928372
2026-03-26 16:29:28.107	-2.6085689	-0.3236194499999988	9.4928372
2026-03-26 16:29:28.367	-2.5889556000000002	-0.3236194499999988	9.4928372
2026-03-26 16:29:28.610	-2.59876225	-0.33342609999999884	9.4928372
2026-03-26 16:29:28.867	-2.59876225	-0.33342609999999884	9.4928372
2026-03-26 16:29:29.112	-2.5889556000000002	-0.33342609999999884	9.50264385
2026-03-26 16:29:29.367	-2.5889556000000002	-0.3236194499999988	9.50264385
2026-03-26 16:29:29.612	-2.48108245	-0.23535959999999886	9.4339973
2026-03-26 16:29:29.875	-2.57914895	-0.27458619999999884	9.52225715
2026-03-26 16:29:30.108	-2.91257505	-1.5984839499999985	11.22861425
2026-03-26 16:29:30.369	-1.93191005	-0.8335652499999987	10.591182
2026-03-26 16:29:30.611	-0.50013915	0.5001391500000013	10.38524235
2026-03-26 16:29:30.878	0.2549729	2.029976550000001	9.0025047
2026-03-26 16:29:31.108	1.5102241	2.4320492000000007	7.95319315
2026-03-26 16:29:31.368	2.91257505	2.1770763000000013	8.041453
2026-03-26 16:29:31.611	3.0008349	3.010641550000001	9.1594111
2026-03-26 16:29:31.868	3.6284605	4.148212950000001	7.87473995
2026-03-26 16:29:32.109	2.77528195	3.265614450000001	7.42363405
2026-03-26 16:29:32.366	1.28467115	3.5892339000000013	8.56120545
2026-03-26 16:29:32.610	0.6668522	3.226387850000001	10.6500219
2026-03-26 16:29:32.870	-1.5102241	-0.24516624999999895	8.4729456
2026-03-26 16:29:33.108	-2.06920315	-0.6766588499999987	10.4538889
2026-03-26 16:29:33.367	-3.4421341500000002	0.16671305000000122	9.89490985
2026-03-26 16:29:33.608	-4.8248718	-0.10787314999999884	9.463417250000001
2026-03-26 16:29:33.868	-4.2756994	0.009806650000001	8.1591328
2026-03-26 16:29:34.108	-4.71699865	-0.421685949999999	8.6494653
2026-03-26 16:29:34.367	-4.79545185	-1.039504899999999	8.77695175
2026-03-26 16:29:34.608	-4.5502856000000005	-0.8139519499999989	8.7083052
2026-03-26 16:29:34.868	-4.5502856000000005	-0.9512450499999989	8.63965865
2026-03-26 16:29:35.111	-4.6287388	-0.8041452999999988	8.629852
2026-03-26 16:29:35.368	-4.6483521	-0.8629851999999989	8.71811185
2026-03-26 16:29:35.615	-4.8444851	-0.872791849999999	8.48275225
2026-03-26 16:29:35.868	-4.67777205	-0.9708583499999989	8.7671451
2026-03-26 16:29:36.108	-4.6287388	-1.019891599999999	8.7279185
2026-03-26 16:29:36.375	-4.44241245	-0.9610516999999988	8.79656505
2026-03-26 16:29:36.615	-5.0210048	-0.794338649999999	8.3356525
2026-03-26 16:29:36.868	-4.57970555	-0.9414383999999989	8.6886919
