[System]
Platform=SEANO USV
Start_Time=2026-04-18 17:49:52
Timezone=WIB

[Sensor]
Name=IMU

[Columns]
Timestamp(WIB)	AccX	AccY	AccZ

[Data]
2026-04-18 17:49:54.781	-0.46091255	-0.0490332499999988	9.8262633
2026-04-18 17:49:55.024	-0.46091255	-0.0490332499999988	9.8262633
2026-04-18 17:49:55.280	-0.46091255	-0.0490332499999988	9.8262633
2026-04-18 17:49:55.525	-0.46091255	-0.0490332499999988	9.8262633
2026-04-18 17:49:55.781	-0.46091255	-0.0490332499999988	9.8262633
2026-04-18 17:49:56.034	-0.46091255	-0.0490332499999988	9.83606995
2026-04-18 17:49:56.281	-0.46091255	-0.0490332499999988	9.83606995
2026-04-18 17:49:56.534	-0.4707192	-0.0490332499999988	9.8262633
2026-04-18 17:49:56.781	-0.4707192	-0.0490332499999988	9.8262633
2026-04-18 17:49:57.036	-0.46091255	-0.0490332499999988	9.8262633
2026-04-18 17:49:57.282	-0.46091255	-0.0490332499999988	9.8262633
2026-04-18 17:49:57.529	-0.46091255	-0.0490332499999988	9.8262633
2026-04-18 17:49:57.781	-0.46091255	-0.0490332499999988	9.8262633
2026-04-18 17:49:58.031	-0.4707192	-0.0490332499999988	9.8262633
2026-04-18 17:49:58.281	-0.4707192	-0.0490332499999988	9.8262633
2026-04-18 17:49:58.534	-0.4707192	-0.0490332499999988	9.8262633
2026-04-18 17:49:58.781	-0.4707192	-0.0490332499999988	9.8262633
2026-04-18 17:49:59.038	-0.46091255	-0.0490332499999988	9.8262633
2026-04-18 17:49:59.281	-0.46091255	-0.0490332499999988	9.8262633
2026-04-18 17:49:59.530	-0.46091255	-0.0490332499999988	9.8262633
2026-04-18 17:49:59.782	-0.46091255	-0.0490332499999988	9.8262633
2026-04-18 17:50:00.032	-0.46091255	-0.0588398999999988	9.8262633
2026-04-18 17:50:00.281	-0.46091255	-0.0588398999999988	9.8262633
2026-04-18 17:50:00.532	-0.4707192	-0.0490332499999988	9.8262633
2026-04-18 17:50:00.782	-0.4707192	-0.0490332499999988	9.8262633
2026-04-18 17:50:01.037	-0.4707192	-0.0588398999999988	9.8262633
2026-04-18 17:50:01.279	-0.4707192	-0.0588398999999988	9.8262633
2026-04-18 17:50:01.522	-0.46091255	-0.0588398999999988	9.83606995
2026-04-18 17:50:01.779	-0.46091255	-0.0588398999999988	9.83606995
2026-04-18 17:50:02.028	-0.4707192	-0.0490332499999988	9.8262633
2026-04-18 17:50:02.279	-0.4707192	-0.0490332499999988	9.8262633
2026-04-18 17:50:02.522	-0.46091255	-0.0588398999999988	9.8262633
2026-04-18 17:50:02.782	-0.46091255	-0.0588398999999988	9.8262633
2026-04-18 17:50:03.031	-0.46091255	-0.0490332499999988	9.8262633
2026-04-18 17:50:03.282	-0.46091255	-0.0490332499999988	9.8262633
2026-04-18 17:50:03.535	-0.46091255	-0.0490332499999988	9.8262633
2026-04-18 17:50:03.781	-0.46091255	-0.0490332499999988	9.8262633
2026-04-18 17:50:04.030	-0.46091255	-0.0490332499999988	9.8262633
2026-04-18 17:50:04.282	-0.46091255	-0.0490332499999988	9.8262633
2026-04-18 17:50:04.535	-0.4707192	-0.0490332499999988	9.8262633
2026-04-18 17:50:04.782	-0.4707192	-0.0490332499999988	9.8262633
2026-04-18 17:50:05.023	-0.46091255	-0.0588398999999988	9.8262633
2026-04-18 17:50:05.281	-0.46091255	-0.0588398999999988	9.8262633
2026-04-18 17:50:05.529	-0.46091255	-0.0490332499999988	9.8262633
2026-04-18 17:50:05.781	-0.46091255	-0.0490332499999988	9.8262633
2026-04-18 17:50:06.030	-0.4707192	-0.0588398999999988	9.8262633
2026-04-18 17:50:06.282	-0.4707192	-0.0588398999999988	9.8262633
2026-04-18 17:50:06.538	-0.46091255	-0.0490332499999988	9.8262633
2026-04-18 17:50:06.782	-0.46091255	-0.0490332499999988	9.8262633
2026-04-18 17:50:07.030	-0.46091255	-0.0490332499999988	9.8262633
2026-04-18 17:50:07.282	-0.46091255	-0.0490332499999988	9.8262633
2026-04-18 17:50:07.527	-0.46091255	-0.0490332499999988	9.8262633
2026-04-18 17:50:07.781	-0.46091255	-0.0490332499999988	9.8262633
2026-04-18 17:50:08.033	-0.4707192	-0.0490332499999988	9.8262633
2026-04-18 17:50:08.282	-0.4707192	-0.0490332499999988	9.8262633
2026-04-18 17:50:08.533	-0.46091255	-0.0490332499999988	9.8262633
2026-04-18 17:50:08.781	-0.46091255	-0.0490332499999988	9.8262633
2026-04-18 17:50:09.026	-0.4707192	-0.0490332499999988	9.83606995
2026-04-18 17:50:09.279	-0.4707192	-0.0490332499999988	9.83606995
2026-04-18 17:50:09.526	-0.46091255	-0.0490332499999988	9.83606995
2026-04-18 17:50:09.778	-0.46091255	-0.0490332499999988	9.83606995
2026-04-18 17:50:10.022	-0.4707192	-0.0490332499999988	9.8262633
2026-04-18 17:50:10.282	-0.4707192	-0.0490332499999988	9.8262633
2026-04-18 17:50:10.533	-0.46091255	-0.0588398999999988	9.8262633
2026-04-18 17:50:10.781	-0.46091255	-0.0588398999999988	9.8262633
2026-04-18 17:50:11.029	-0.46091255	-0.0490332499999988	9.8262633
2026-04-18 17:50:11.282	-0.46091255	-0.0490332499999988	9.8262633
2026-04-18 17:50:11.528	-0.46091255	-0.0490332499999988	9.8262633
2026-04-18 17:50:11.781	-0.46091255	-0.0490332499999988	9.8262633
2026-04-18 17:50:12.029	-0.46091255	-0.0490332499999988	9.8262633
2026-04-18 17:50:12.282	-0.46091255	-0.0490332499999988	9.8262633
2026-04-18 17:50:12.532	-0.4707192	-0.0490332499999988	9.8262633
2026-04-18 17:50:12.781	-0.4707192	-0.0490332499999988	9.8262633
2026-04-18 17:50:13.031	-0.46091255	-0.0490332499999988	9.8262633
2026-04-18 17:50:13.282	-0.46091255	-0.0490332499999988	9.8262633
2026-04-18 17:50:13.532	-0.46091255	-0.0490332499999988	9.8262633
2026-04-18 17:50:13.781	-0.46091255	-0.0490332499999988	9.8262633
2026-04-18 17:50:14.038	-0.46091255	-0.0490332499999988	9.8262633
2026-04-18 17:50:14.283	-0.46091255	-0.0490332499999988	9.8262633
2026-04-18 17:50:14.532	-0.4707192	-0.0490332499999988	9.8262633
2026-04-18 17:50:14.781	-0.4707192	-0.0490332499999988	9.8262633
2026-04-18 17:50:15.038	-0.46091255	-0.0588398999999988	9.8262633
2026-04-18 17:50:15.282	-0.46091255	-0.0588398999999988	9.8262633
2026-04-18 17:50:15.531	-0.4707192	-0.0490332499999988	9.8262633
2026-04-18 17:50:15.781	-0.4707192	-0.0490332499999988	9.8262633
2026-04-18 17:50:16.029	-0.4707192	-0.0490332499999988	9.83606995
2026-04-18 17:50:16.282	-0.4707192	-0.0490332499999988	9.83606995
2026-04-18 17:50:16.534	-0.4707192	-0.0490332499999988	9.8262633
2026-04-18 17:50:16.781	-0.4707192	-0.0490332499999988	9.8262633
2026-04-18 17:50:17.029	-0.46091255	-0.0588398999999988	9.8262633
2026-04-18 17:50:17.282	-0.46091255	-0.0588398999999988	9.8262633
2026-04-18 17:50:17.530	-0.46091255	-0.0490332499999988	9.8262633
2026-04-18 17:50:17.782	-0.46091255	-0.0490332499999988	9.8262633
2026-04-18 17:50:18.031	-0.46091255	-0.0490332499999988	9.8262633
2026-04-18 17:50:18.282	-0.46091255	-0.0490332499999988	9.8262633
2026-04-18 17:50:18.538	-0.4707192	-0.0490332499999988	9.8262633
2026-04-18 17:50:18.781	-0.4707192	-0.0490332499999988	9.8262633
2026-04-18 17:50:19.029	-0.4707192	-0.0588398999999988	9.8262633
2026-04-18 17:50:19.281	-0.4707192	-0.0588398999999988	9.8262633
2026-04-18 17:50:19.533	-0.4707192	-0.0490332499999988	9.8262633
2026-04-18 17:50:19.781	-0.4707192	-0.0490332499999988	9.8262633
2026-04-18 17:50:20.033	-0.46091255	-0.0490332499999988	9.8262633
2026-04-18 17:50:20.282	-0.46091255	-0.0490332499999988	9.8262633
2026-04-18 17:50:20.533	-0.46091255	-0.0490332499999988	9.8262633
2026-04-18 17:50:20.781	-0.46091255	-0.0490332499999988	9.8262633
2026-04-18 17:50:21.031	-0.46091255	-0.0588398999999988	9.8262633
2026-04-18 17:50:21.282	-0.46091255	-0.0588398999999988	9.8262633
2026-04-18 17:50:21.530	-0.4707192	-0.0490332499999988	9.8262633
2026-04-18 17:50:21.781	-0.4707192	-0.0490332499999988	9.8262633
2026-04-18 17:50:22.031	-0.46091255	-0.0588398999999988	9.8262633
2026-04-18 17:50:22.282	-0.46091255	-0.0588398999999988	9.8262633
2026-04-18 17:50:22.534	-0.46091255	-0.0588398999999988	9.8262633
2026-04-18 17:50:22.782	-0.46091255	-0.0588398999999988	9.8262633
2026-04-18 17:50:23.029	-0.46091255	-0.0490332499999988	9.83606995
2026-04-18 17:50:23.282	-0.46091255	-0.0490332499999988	9.83606995
2026-04-18 17:50:23.533	-0.4707192	-0.0490332499999988	9.8262633
2026-04-18 17:50:23.782	-0.4707192	-0.0490332499999988	9.8262633
2026-04-18 17:50:24.030	-0.46091255	-0.0490332499999988	9.8262633
2026-04-18 17:50:24.282	-0.46091255	-0.0490332499999988	9.8262633
2026-04-18 17:50:24.532	-0.4707192	-0.0490332499999988	9.8262633
2026-04-18 17:50:24.782	-0.4707192	-0.0490332499999988	9.8262633
2026-04-18 17:50:25.031	-0.46091255	-0.0490332499999988	9.8262633
2026-04-18 17:50:25.281	-0.46091255	-0.0490332499999988	9.8262633
2026-04-18 17:50:25.532	-0.4707192	-0.0490332499999988	9.8262633
2026-04-18 17:50:25.782	-0.4707192	-0.0490332499999988	9.8262633
2026-04-18 17:50:26.034	-0.4707192	-0.0490332499999988	9.8262633
2026-04-18 17:50:26.282	-0.4707192	-0.0490332499999988	9.8262633
2026-04-18 17:50:26.533	-0.46091255	-0.0490332499999988	9.8262633
2026-04-18 17:50:26.782	-0.46091255	-0.0490332499999988	9.8262633
2026-04-18 17:50:27.036	-0.4707192	-0.0490332499999988	9.8262633
2026-04-18 17:50:27.283	-0.4707192	-0.0490332499999988	9.8262633
2026-04-18 17:50:27.531	-0.46091255	-0.0490332499999988	9.8262633
2026-04-18 17:50:27.782	-0.46091255	-0.0490332499999988	9.8262633
2026-04-18 17:50:28.030	-0.46091255	-0.0490332499999988	9.8262633
2026-04-18 17:50:28.281	-0.46091255	-0.0490332499999988	9.8262633
2026-04-18 17:50:28.537	-0.46091255	-0.0490332499999988	9.8262633
2026-04-18 17:50:28.782	-0.46091255	-0.0490332499999988	9.8262633
2026-04-18 17:50:29.033	-0.4707192	-0.0490332499999988	9.83606995
2026-04-18 17:50:29.282	-0.4707192	-0.0490332499999988	9.83606995
2026-04-18 17:50:29.528	-0.46091255	-0.0490332499999988	9.8262633
2026-04-18 17:50:29.782	-0.46091255	-0.0490332499999988	9.8262633
2026-04-18 17:50:30.031	-0.46091255	-0.0490332499999988	9.8262633
2026-04-18 17:50:30.282	-0.46091255	-0.0490332499999988	9.8262633
2026-04-18 17:50:30.534	-0.46091255	-0.0490332499999988	9.8262633
2026-04-18 17:50:30.782	-0.46091255	-0.0490332499999988	9.8262633
2026-04-18 17:50:31.031	-0.46091255	-0.0588398999999988	9.8262633
2026-04-18 17:50:31.282	-0.46091255	-0.0588398999999988	9.8262633
2026-04-18 17:50:31.530	-0.46091255	-0.0490332499999988	9.8262633
2026-04-18 17:50:31.781	-0.46091255	-0.0490332499999988	9.8262633
2026-04-18 17:50:32.030	-0.46091255	-0.0588398999999988	9.83606995
2026-04-18 17:50:32.282	-0.46091255	-0.0588398999999988	9.83606995
2026-04-18 17:50:32.533	-0.46091255	-0.0490332499999988	9.8262633
2026-04-18 17:50:32.782	-0.46091255	-0.0490332499999988	9.8262633
2026-04-18 17:50:33.030	-0.46091255	-0.0588398999999988	9.83606995
2026-04-18 17:50:33.283	-0.46091255	-0.0588398999999988	9.83606995
2026-04-18 17:50:33.531	-0.46091255	-0.0490332499999988	9.8262633
2026-04-18 17:50:33.781	-0.46091255	-0.0490332499999988	9.8262633
2026-04-18 17:50:34.032	-0.46091255	-0.0490332499999988	9.8262633
2026-04-18 17:50:34.281	-0.46091255	-0.0490332499999988	9.8262633
2026-04-18 17:50:34.533	-0.46091255	-0.0490332499999988	9.8262633
2026-04-18 17:50:34.781	-0.46091255	-0.0490332499999988	9.8262633
2026-04-18 17:50:35.030	-0.46091255	-0.0490332499999988	9.8262633
2026-04-18 17:50:35.282	-0.46091255	-0.0490332499999988	9.8262633
2026-04-18 17:50:35.528	-0.4707192	-0.0490332499999988	9.8262633
2026-04-18 17:50:35.781	-0.4707192	-0.0490332499999988	9.8262633
2026-04-18 17:50:36.033	-0.4707192	-0.0490332499999988	9.8262633
2026-04-18 17:50:36.282	-0.4707192	-0.0490332499999988	9.8262633
2026-04-18 17:50:36.541	-0.4707192	-0.0490332499999988	9.83606995
2026-04-18 17:50:36.782	-0.4707192	-0.0490332499999988	9.83606995
2026-04-18 17:50:37.031	-0.4707192	-0.0490332499999988	9.83606995
2026-04-18 17:50:37.283	-0.4707192	-0.0490332499999988	9.83606995
2026-04-18 17:50:37.531	-0.46091255	-0.0588398999999988	9.8262633
2026-04-18 17:50:37.781	-0.46091255	-0.0588398999999988	9.8262633
2026-04-18 17:50:38.029	-0.4707192	-0.0490332499999988	9.8262633
2026-04-18 17:50:38.282	-0.4707192	-0.0490332499999988	9.8262633
2026-04-18 17:50:38.531	-0.4707192	-0.0490332499999988	9.8262633
2026-04-18 17:50:38.781	-0.4707192	-0.0490332499999988	9.8262633
2026-04-18 17:50:39.032	-0.4707192	-0.0490332499999988	9.8262633
2026-04-18 17:50:39.283	-0.4707192	-0.0490332499999988	9.8262633
2026-04-18 17:50:39.527	-0.46091255	-0.0490332499999988	9.81645665
2026-04-18 17:50:39.781	-0.46091255	-0.0490332499999988	9.81645665
2026-04-18 17:50:40.036	-0.46091255	-0.0588398999999988	9.8262633
2026-04-18 17:50:40.282	-0.46091255	-0.0588398999999988	9.8262633
2026-04-18 17:50:40.531	-0.46091255	-0.0490332499999988	9.8262633
2026-04-18 17:50:40.782	-0.46091255	-0.0490332499999988	9.8262633
2026-04-18 17:50:41.035	-0.46091255	-0.0490332499999988	9.8262633
2026-04-18 17:50:41.282	-0.46091255	-0.0490332499999988	9.8262633
2026-04-18 17:50:41.531	-0.46091255	-0.0490332499999988	9.8262633
2026-04-18 17:50:41.781	-0.46091255	-0.0490332499999988	9.8262633
2026-04-18 17:50:42.029	-0.4707192	-0.0490332499999988	9.8262633
2026-04-18 17:50:42.282	-0.4707192	-0.0490332499999988	9.8262633
2026-04-18 17:50:42.534	-0.46091255	-0.0490332499999988	9.83606995
2026-04-18 17:50:42.782	-0.46091255	-0.0490332499999988	9.83606995
2026-04-18 17:50:43.033	-0.46091255	-0.0490332499999988	9.8262633
2026-04-18 17:50:43.280	-0.46091255	-0.0490332499999988	9.8262633
2026-04-18 17:50:43.532	-0.4707192	-0.0490332499999988	9.8262633
2026-04-18 17:50:43.782	-0.4707192	-0.0490332499999988	9.8262633
2026-04-18 17:50:44.026	-0.46091255	-0.0490332499999988	9.8262633
2026-04-18 17:50:44.283	-0.46091255	-0.0490332499999988	9.8262633
2026-04-18 17:50:44.536	-0.46091255	-0.0588398999999988	9.8262633
2026-04-18 17:50:44.782	-0.46091255	-0.0588398999999988	9.8262633
2026-04-18 17:50:45.032	-0.4707192	-0.0588398999999988	9.8262633
2026-04-18 17:50:45.282	-0.4707192	-0.0588398999999988	9.8262633
2026-04-18 17:50:45.530	-0.4707192	-0.0490332499999988	9.8262633
2026-04-18 17:50:45.783	-0.4707192	-0.0490332499999988	9.8262633
2026-04-18 17:50:46.029	-0.46091255	-0.0490332499999988	9.8262633
2026-04-18 17:50:46.281	-0.46091255	-0.0490332499999988	9.8262633
2026-04-18 17:50:46.534	-0.46091255	-0.0490332499999988	9.83606995
2026-04-18 17:50:46.782	-0.46091255	-0.0490332499999988	9.83606995
2026-04-18 17:50:47.029	-0.46091255	-0.0588398999999988	9.83606995
2026-04-18 17:50:47.281	-0.46091255	-0.0588398999999988	9.83606995
2026-04-18 17:50:47.530	-0.46091255	-0.0490332499999988	9.8262633
2026-04-18 17:50:47.782	-0.46091255	-0.0490332499999988	9.8262633
2026-04-18 17:50:48.029	-0.46091255	-0.0490332499999988	9.83606995
2026-04-18 17:50:48.283	-0.46091255	-0.0490332499999988	9.83606995
2026-04-18 17:50:48.534	-0.46091255	-0.0490332499999988	9.8262633
2026-04-18 17:50:48.782	-0.46091255	-0.0490332499999988	9.8262633
2026-04-18 17:50:49.029	-0.46091255	-0.0588398999999988	9.81645665
2026-04-18 17:50:49.282	-0.46091255	-0.0588398999999988	9.81645665
2026-04-18 17:50:49.529	-0.46091255	-0.0490332499999988	9.8262633
2026-04-18 17:50:49.782	-0.46091255	-0.0490332499999988	9.8262633
2026-04-18 17:50:50.029	-0.46091255	-0.0490332499999988	9.8262633
2026-04-18 17:50:50.282	-0.46091255	-0.0490332499999988	9.8262633
2026-04-18 17:50:50.533	-0.46091255	-0.0490332499999988	9.8262633
2026-04-18 17:50:50.782	-0.46091255	-0.0490332499999988	9.8262633
2026-04-18 17:50:51.029	-0.46091255	-0.0588398999999988	9.83606995
2026-04-18 17:50:51.282	-0.46091255	-0.0588398999999988	9.83606995
2026-04-18 17:50:51.528	-0.4707192	-0.0588398999999988	9.8262633
2026-04-18 17:50:51.782	-0.4707192	-0.0588398999999988	9.8262633
2026-04-18 17:50:52.034	-0.46091255	-0.0490332499999988	9.8262633
2026-04-18 17:50:52.284	-0.46091255	-0.0490332499999988	9.8262633
2026-04-18 17:50:52.533	-0.46091255	-0.0490332499999988	9.8262633
2026-04-18 17:50:52.782	-0.46091255	-0.0490332499999988	9.8262633
2026-04-18 17:50:53.029	-0.46091255	-0.0588398999999988	9.8262633
2026-04-18 17:50:53.282	-0.46091255	-0.0588398999999988	9.8262633
2026-04-18 17:50:53.529	-0.4707192	-0.0490332499999988	9.8262633
2026-04-18 17:50:53.782	-0.4707192	-0.0490332499999988	9.8262633
2026-04-18 17:50:54.034	-0.46091255	-0.0490332499999988	9.8262633
2026-04-18 17:50:54.282	-0.46091255	-0.0490332499999988	9.8262633
2026-04-18 17:50:54.533	-0.46091255	-0.0588398999999988	9.8262633
2026-04-18 17:50:54.782	-0.46091255	-0.0588398999999988	9.8262633
2026-04-18 17:50:55.032	-0.46091255	-0.0588398999999988	9.83606995
2026-04-18 17:50:55.282	-0.46091255	-0.0588398999999988	9.83606995
2026-04-18 17:50:55.528	-0.46091255	-0.0490332499999988	9.8262633
2026-04-18 17:50:55.782	-0.46091255	-0.0490332499999988	9.8262633
2026-04-18 17:50:56.032	-0.46091255	-0.0490332499999988	9.8262633
2026-04-18 17:50:56.283	-0.46091255	-0.0490332499999988	9.8262633
2026-04-18 17:50:56.534	-0.46091255	-0.0490332499999988	9.83606995
2026-04-18 17:50:56.782	-0.46091255	-0.0490332499999988	9.83606995
2026-04-18 17:50:57.031	-0.46091255	-0.0588398999999988	9.8262633
2026-04-18 17:50:57.283	-0.46091255	-0.0588398999999988	9.8262633
2026-04-18 17:50:57.533	-0.46091255	-0.0490332499999988	9.8262633
2026-04-18 17:50:57.781	-0.46091255	-0.0490332499999988	9.8262633
2026-04-18 17:50:58.032	-0.46091255	-0.0588398999999988	9.8262633
2026-04-18 17:50:58.282	-0.46091255	-0.0588398999999988	9.8262633
2026-04-18 17:50:58.535	-0.4707192	-0.0490332499999988	9.81645665
2026-04-18 17:50:58.781	-0.4707192	-0.0490332499999988	9.81645665
2026-04-18 17:50:59.035	-0.4707192	-0.0490332499999988	9.8262633
2026-04-18 17:50:59.284	-0.4707192	-0.0490332499999988	9.8262633
2026-04-18 17:50:59.530	-0.46091255	-0.0490332499999988	9.8262633
2026-04-18 17:50:59.782	-0.46091255	-0.0490332499999988	9.8262633
2026-04-18 17:51:00.041	-0.46091255	-0.0490332499999988	9.83606995
2026-04-18 17:51:00.283	-0.46091255	-0.0490332499999988	9.83606995
2026-04-18 17:51:00.534	-0.46091255	-0.0490332499999988	9.8262633
2026-04-18 17:51:00.782	-0.46091255	-0.0490332499999988	9.8262633
2026-04-18 17:51:01.041	-0.46091255	-0.0588398999999988	9.8262633
2026-04-18 17:51:01.282	-0.46091255	-0.0588398999999988	9.8262633
2026-04-18 17:51:01.533	-0.46091255	-0.0490332499999988	9.8262633
2026-04-18 17:51:01.782	-0.46091255	-0.0490332499999988	9.8262633
2026-04-18 17:51:02.035	-0.46091255	-0.0490332499999988	9.8262633
2026-04-18 17:51:02.282	-0.46091255	-0.0490332499999988	9.8262633
2026-04-18 17:51:02.537	-0.4707192	-0.0490332499999988	9.8262633
2026-04-18 17:51:02.782	-0.4707192	-0.0490332499999988	9.8262633
2026-04-18 17:51:03.036	-0.46091255	-0.0490332499999988	9.8262633
2026-04-18 17:51:03.283	-0.46091255	-0.0490332499999988	9.8262633
2026-04-18 17:51:03.529	-0.46091255	-0.0490332499999988	9.8262633
2026-04-18 17:51:03.782	-0.46091255	-0.0490332499999988	9.8262633
2026-04-18 17:51:04.031	-0.46091255	-0.0490332499999988	9.8262633
2026-04-18 17:51:04.282	-0.46091255	-0.0490332499999988	9.8262633
2026-04-18 17:51:04.533	-0.4707192	-0.0490332499999988	9.8262633
2026-04-18 17:51:04.782	-0.4707192	-0.0490332499999988	9.8262633
2026-04-18 17:51:05.035	-0.46091255	-0.0588398999999988	9.8262633
2026-04-18 17:51:05.283	-0.46091255	-0.0588398999999988	9.8262633
2026-04-18 17:51:05.528	-0.46091255	-0.0588398999999988	9.83606995
2026-04-18 17:51:05.782	-0.46091255	-0.0588398999999988	9.83606995
2026-04-18 17:51:06.029	-0.46091255	-0.0490332499999988	9.83606995
2026-04-18 17:51:06.282	-0.46091255	-0.0490332499999988	9.83606995
2026-04-18 17:51:06.534	-0.4707192	-0.0588398999999988	9.8262633
2026-04-18 17:51:06.782	-0.4707192	-0.0588398999999988	9.8262633
2026-04-18 17:51:07.030	-0.46091255	-0.0490332499999988	9.8262633
2026-04-18 17:51:07.281	-0.46091255	-0.0490332499999988	9.8262633
2026-04-18 17:51:07.531	-0.46091255	-0.0490332499999988	9.8262633
2026-04-18 17:51:07.782	-0.46091255	-0.0490332499999988	9.8262633
2026-04-18 17:51:08.030	-0.46091255	-0.0490332499999988	9.8262633
2026-04-18 17:51:08.282	-0.46091255	-0.0490332499999988	9.8262633
2026-04-18 17:51:08.535	-0.46091255	-0.0490332499999988	9.83606995
2026-04-18 17:51:08.782	-0.46091255	-0.0490332499999988	9.83606995
2026-04-18 17:51:09.030	-0.46091255	-0.0490332499999988	9.8262633
2026-04-18 17:51:09.283	-0.46091255	-0.0490332499999988	9.8262633
2026-04-18 17:51:09.531	-0.46091255	-0.0588398999999988	9.8262633
2026-04-18 17:51:09.782	-0.46091255	-0.0588398999999988	9.8262633
2026-04-18 17:51:10.031	-0.46091255	-0.0490332499999988	9.8262633
2026-04-18 17:51:10.282	-0.46091255	-0.0490332499999988	9.8262633
2026-04-18 17:51:10.534	-0.4707192	-0.0588398999999988	9.8262633
2026-04-18 17:51:10.782	-0.4707192	-0.0588398999999988	9.8262633
2026-04-18 17:51:11.029	-0.46091255	-0.0490332499999988	9.8262633
2026-04-18 17:51:11.283	-0.46091255	-0.0490332499999988	9.8262633
2026-04-18 17:51:11.529	-0.4707192	-0.0490332499999988	9.83606995
2026-04-18 17:51:11.783	-0.4707192	-0.0490332499999988	9.83606995
2026-04-18 17:51:12.029	-0.46091255	-0.0490332499999988	9.8262633
2026-04-18 17:51:12.282	-0.46091255	-0.0490332499999988	9.8262633
2026-04-18 17:51:12.534	-0.4707192	-0.0490332499999988	9.8262633
2026-04-18 17:51:12.783	-0.4707192	-0.0490332499999988	9.8262633
2026-04-18 17:51:13.033	-0.46091255	-0.0490332499999988	9.8262633
2026-04-18 17:51:13.281	-0.46091255	-0.0490332499999988	9.8262633
2026-04-18 17:51:13.529	-0.46091255	-0.0490332499999988	9.8262633
2026-04-18 17:51:13.782	-0.46091255	-0.0490332499999988	9.8262633
2026-04-18 17:51:14.036	-0.46091255	-0.0490332499999988	9.8262633
2026-04-18 17:51:14.282	-0.46091255	-0.0490332499999988	9.8262633
2026-04-18 17:51:14.532	-0.46091255	-0.0588398999999988	9.8262633
2026-04-18 17:51:14.783	-0.46091255	-0.0588398999999988	9.8262633
2026-04-18 17:51:15.031	-0.46091255	-0.0490332499999988	9.8262633
2026-04-18 17:51:15.282	-0.46091255	-0.0490332499999988	9.8262633
2026-04-18 17:51:15.528	-0.4707192	-0.0490332499999988	9.8262633
2026-04-18 17:51:15.782	-0.4707192	-0.0490332499999988	9.8262633
2026-04-18 17:51:16.029	-0.4707192	-0.0588398999999988	9.8262633
2026-04-18 17:51:16.282	-0.4707192	-0.0588398999999988	9.8262633
2026-04-18 17:51:16.533	-0.46091255	-0.0490332499999988	9.83606995
2026-04-18 17:51:16.782	-0.46091255	-0.0490332499999988	9.83606995
2026-04-18 17:51:17.034	-0.46091255	-0.0490332499999988	9.83606995
2026-04-18 17:51:17.283	-0.46091255	-0.0490332499999988	9.83606995
2026-04-18 17:51:17.533	-0.46091255	-0.0490332499999988	9.8262633
2026-04-18 17:51:17.782	-0.46091255	-0.0490332499999988	9.8262633
2026-04-18 17:51:18.031	-0.46091255	-0.0490332499999988	9.8262633
2026-04-18 17:51:18.282	-0.46091255	-0.0490332499999988	9.8262633
2026-04-18 17:51:18.534	-0.46091255	-0.0490332499999988	9.83606995
2026-04-18 17:51:18.783	-0.46091255	-0.0490332499999988	9.83606995
2026-04-18 17:51:19.032	-0.46091255	-0.0588398999999988	9.8262633
2026-04-18 17:51:19.282	-0.46091255	-0.0588398999999988	9.8262633
2026-04-18 17:51:19.532	-0.46091255	-0.0588398999999988	9.8262633
2026-04-18 17:51:19.781	-0.46091255	-0.0588398999999988	9.8262633
2026-04-18 17:51:20.035	-0.46091255	-0.0490332499999988	9.8262633
2026-04-18 17:51:20.283	-0.46091255	-0.0490332499999988	9.8262633
2026-04-18 17:51:20.536	-0.46091255	-0.0490332499999988	9.8262633
2026-04-18 17:51:20.782	-0.46091255	-0.0490332499999988	9.8262633
2026-04-18 17:51:21.029	-0.46091255	-0.0588398999999988	9.8262633
2026-04-18 17:51:21.282	-0.46091255	-0.0588398999999988	9.8262633
2026-04-18 17:51:21.527	-0.4707192	-0.0490332499999988	9.8262633
2026-04-18 17:51:21.782	-0.4707192	-0.0490332499999988	9.8262633
2026-04-18 17:51:22.030	-0.46091255	-0.0490332499999988	9.8262633
2026-04-18 17:51:22.282	-0.46091255	-0.0490332499999988	9.8262633
2026-04-18 17:51:22.533	-0.4707192	-0.0490332499999988	9.8262633
2026-04-18 17:51:22.782	-0.4707192	-0.0490332499999988	9.8262633
2026-04-18 17:51:23.037	-0.4707192	-0.0490332499999988	9.81645665
2026-04-18 17:51:23.283	-0.4707192	-0.0490332499999988	9.81645665
2026-04-18 17:51:23.528	-0.46091255	-0.0490332499999988	9.8262633
2026-04-18 17:51:23.782	-0.46091255	-0.0490332499999988	9.8262633
2026-04-18 17:51:24.038	-0.46091255	-0.0490332499999988	9.8262633
2026-04-18 17:51:24.282	-0.46091255	-0.0490332499999988	9.8262633
2026-04-18 17:51:24.532	-0.4707192	-0.0490332499999988	9.8262633
2026-04-18 17:51:24.782	-0.4707192	-0.0490332499999988	9.8262633
2026-04-18 17:51:25.032	-0.4707192	-0.0490332499999988	9.8262633
2026-04-18 17:51:25.282	-0.4707192	-0.0490332499999988	9.8262633
2026-04-18 17:51:25.531	-0.46091255	-0.0490332499999988	9.8262633
2026-04-18 17:51:25.782	-0.46091255	-0.0490332499999988	9.8262633
2026-04-18 17:51:26.029	-0.46091255	-0.0490332499999988	9.8262633
2026-04-18 17:51:26.282	-0.46091255	-0.0490332499999988	9.8262633
2026-04-18 17:51:26.532	-0.46091255	-0.0588398999999988	9.8262633
2026-04-18 17:51:26.783	-0.46091255	-0.0588398999999988	9.8262633
2026-04-18 17:51:27.029	-0.46091255	-0.0490332499999988	9.8262633
2026-04-18 17:51:27.282	-0.46091255	-0.0490332499999988	9.8262633
2026-04-18 17:51:27.529	-0.46091255	-0.0490332499999988	9.8262633
2026-04-18 17:51:27.782	-0.46091255	-0.0490332499999988	9.8262633
2026-04-18 17:51:28.032	-0.46091255	-0.0588398999999988	9.8262633
2026-04-18 17:51:28.282	-0.46091255	-0.0588398999999988	9.8262633
2026-04-18 17:51:28.535	-0.46091255	-0.0490332499999988	9.8262633
2026-04-18 17:51:28.782	-0.46091255	-0.0490332499999988	9.8262633
2026-04-18 17:51:29.031	-0.46091255	-0.0490332499999988	9.8262633
2026-04-18 17:51:29.283	-0.46091255	-0.0490332499999988	9.8262633
2026-04-18 17:51:29.528	-0.46091255	-0.0490332499999988	9.8262633
2026-04-18 17:51:29.782	-0.46091255	-0.0490332499999988	9.8262633
2026-04-18 17:51:30.033	-0.46091255	-0.0588398999999988	9.8262633
2026-04-18 17:51:30.283	-0.46091255	-0.0588398999999988	9.8262633
2026-04-18 17:51:30.533	-0.46091255	-0.0490332499999988	9.8262633
2026-04-18 17:51:30.782	-0.46091255	-0.0490332499999988	9.8262633
2026-04-18 17:51:31.030	-0.46091255	-0.0490332499999988	9.8262633
2026-04-18 17:51:31.283	-0.46091255	-0.0490332499999988	9.8262633
2026-04-18 17:51:31.531	-0.46091255	-0.0490332499999988	9.83606995
2026-04-18 17:51:31.782	-0.46091255	-0.0490332499999988	9.83606995
2026-04-18 17:51:32.035	-0.46091255	-0.0490332499999988	9.8262633
2026-04-18 17:51:32.283	-0.46091255	-0.0490332499999988	9.8262633
2026-04-18 17:51:32.533	-0.4707192	-0.0490332499999988	9.83606995
2026-04-18 17:51:32.783	-0.4707192	-0.0490332499999988	9.83606995
2026-04-18 17:51:33.031	-0.46091255	-0.0588398999999988	9.8262633
2026-04-18 17:51:33.283	-0.46091255	-0.0588398999999988	9.8262633
2026-04-18 17:51:33.533	-0.46091255	-0.0490332499999988	9.8262633
2026-04-18 17:51:33.782	-0.46091255	-0.0490332499999988	9.8262633
2026-04-18 17:51:34.034	-0.46091255	-0.0490332499999988	9.8262633
2026-04-18 17:51:34.282	-0.46091255	-0.0490332499999988	9.8262633
2026-04-18 17:51:34.538	-0.46091255	-0.0490332499999988	9.8262633
2026-04-18 17:51:34.782	-0.46091255	-0.0490332499999988	9.8262633
2026-04-18 17:51:35.030	-0.4707192	-0.0588398999999988	9.8262633
2026-04-18 17:51:35.281	-0.4707192	-0.0588398999999988	9.8262633
2026-04-18 17:51:35.529	-0.46091255	-0.0490332499999988	9.83606995
2026-04-18 17:51:35.782	-0.46091255	-0.0490332499999988	9.83606995
2026-04-18 17:51:36.034	-0.46091255	-0.0490332499999988	9.83606995
2026-04-18 17:51:36.282	-0.46091255	-0.0490332499999988	9.83606995
2026-04-18 17:51:36.535	-0.46091255	-0.0490332499999988	9.8262633
2026-04-18 17:51:36.783	-0.46091255	-0.0490332499999988	9.8262633
2026-04-18 17:51:37.034	-0.4707192	-0.0490332499999988	9.8262633
2026-04-18 17:51:37.282	-0.4707192	-0.0490332499999988	9.8262633
2026-04-18 17:51:37.528	-0.46091255	-0.0490332499999988	9.8262633
2026-04-18 17:51:37.783	-0.46091255	-0.0490332499999988	9.8262633
2026-04-18 17:51:38.036	-0.46091255	-0.0490332499999988	9.8262633
2026-04-18 17:51:38.283	-0.46091255	-0.0490332499999988	9.8262633
2026-04-18 17:51:38.533	-0.46091255	-0.0588398999999988	9.8262633
2026-04-18 17:51:38.783	-0.46091255	-0.0588398999999988	9.8262633
2026-04-18 17:51:39.033	-0.46091255	-0.0588398999999988	9.8262633
2026-04-18 17:51:39.282	-0.46091255	-0.0588398999999988	9.8262633
2026-04-18 17:51:39.528	-0.4707192	-0.0490332499999988	9.8262633
2026-04-18 17:51:39.783	-0.4707192	-0.0490332499999988	9.8262633
2026-04-18 17:51:40.030	-0.46091255	-0.0490332499999988	9.8262633
2026-04-18 17:51:40.283	-0.46091255	-0.0490332499999988	9.8262633
2026-04-18 17:51:40.535	-0.4707192	-0.0490332499999988	9.8262633
2026-04-18 17:51:40.783	-0.4707192	-0.0490332499999988	9.8262633
2026-04-18 17:51:41.029	-0.46091255	-0.0490332499999988	9.8262633
2026-04-18 17:51:41.282	-0.46091255	-0.0490332499999988	9.8262633
2026-04-18 17:51:41.532	-0.4707192	-0.0490332499999988	9.8262633
2026-04-18 17:51:41.783	-0.4707192	-0.0490332499999988	9.8262633
2026-04-18 17:51:42.033	-0.46091255	-0.0490332499999988	9.8262633
2026-04-18 17:51:42.282	-0.46091255	-0.0490332499999988	9.8262633
2026-04-18 17:51:42.535	-0.46091255	-0.0490332499999988	9.8262633
2026-04-18 17:51:42.783	-0.46091255	-0.0490332499999988	9.8262633
2026-04-18 17:51:43.030	-0.46091255	-0.0490332499999988	9.8262633
2026-04-18 17:51:43.282	-0.46091255	-0.0490332499999988	9.8262633
2026-04-18 17:51:43.529	-0.4707192	-0.0490332499999988	9.83606995
2026-04-18 17:51:43.783	-0.4707192	-0.0490332499999988	9.83606995
2026-04-18 17:51:44.030	-0.46091255	-0.0490332499999988	9.8262633
2026-04-18 17:51:44.283	-0.46091255	-0.0490332499999988	9.8262633
2026-04-18 17:51:44.535	-0.46091255	-0.0588398999999988	9.83606995
2026-04-18 17:51:44.782	-0.46091255	-0.0588398999999988	9.83606995
2026-04-18 17:51:45.034	-0.46091255	-0.0588398999999988	9.83606995
2026-04-18 17:51:45.282	-0.46091255	-0.0588398999999988	9.83606995
2026-04-18 17:51:45.533	-0.46091255	-0.0490332499999988	9.8262633
2026-04-18 17:51:45.782	-0.46091255	-0.0490332499999988	9.8262633
2026-04-18 17:51:46.034	-0.46091255	-0.0490332499999988	9.8262633
2026-04-18 17:51:46.283	-0.46091255	-0.0490332499999988	9.8262633
2026-04-18 17:51:46.534	-0.46091255	-0.0588398999999988	9.8262633
2026-04-18 17:51:46.783	-0.46091255	-0.0588398999999988	9.8262633
2026-04-18 17:51:47.032	-0.46091255	-0.0490332499999988	9.83606995
2026-04-18 17:51:47.282	-0.46091255	-0.0490332499999988	9.83606995
2026-04-18 17:51:47.533	-0.46091255	-0.0490332499999988	9.83606995
2026-04-18 17:51:47.782	-0.46091255	-0.0490332499999988	9.83606995
2026-04-18 17:51:48.030	-0.46091255	-0.0490332499999988	9.8262633
2026-04-18 17:51:48.283	-0.46091255	-0.0490332499999988	9.8262633
2026-04-18 17:51:48.534	-0.46091255	-0.0490332499999988	9.8262633
2026-04-18 17:51:48.782	-0.46091255	-0.0490332499999988	9.8262633
2026-04-18 17:51:49.033	-0.46091255	-0.0490332499999988	9.8262633
2026-04-18 17:51:49.283	-0.46091255	-0.0490332499999988	9.8262633
2026-04-18 17:51:49.527	-0.4707192	-0.0490332499999988	9.8262633
2026-04-18 17:51:49.782	-0.4707192	-0.0490332499999988	9.8262633
2026-04-18 17:51:50.029	-0.46091255	-0.0490332499999988	9.8262633
2026-04-18 17:51:50.283	-0.46091255	-0.0490332499999988	9.8262633
2026-04-18 17:51:50.533	-0.46091255	-0.0490332499999988	9.8262633
2026-04-18 17:51:50.782	-0.46091255	-0.0490332499999988	9.8262633
2026-04-18 17:51:51.034	-0.46091255	-0.0490332499999988	9.8262633
2026-04-18 17:51:51.283	-0.46091255	-0.0490332499999988	9.8262633
2026-04-18 17:51:51.530	-0.46091255	-0.0490332499999988	9.83606995
2026-04-18 17:51:51.783	-0.46091255	-0.0490332499999988	9.83606995
2026-04-18 17:51:52.030	-0.46091255	-0.0588398999999988	9.83606995
2026-04-18 17:51:52.283	-0.46091255	-0.0588398999999988	9.83606995
2026-04-18 17:51:52.533	-0.46091255	-0.0490332499999988	9.8262633
2026-04-18 17:51:52.782	-0.46091255	-0.0490332499999988	9.8262633
2026-04-18 17:51:53.036	-0.46091255	-0.0490332499999988	9.8262633
2026-04-18 17:51:53.283	-0.46091255	-0.0490332499999988	9.8262633
2026-04-18 17:51:53.528	-0.4707192	-0.0490332499999988	9.8262633
2026-04-18 17:51:53.783	-0.4707192	-0.0490332499999988	9.8262633
2026-04-18 17:51:54.031	-0.46091255	-0.0490332499999988	9.8262633
2026-04-18 17:51:54.283	-0.46091255	-0.0490332499999988	9.8262633
2026-04-18 17:51:54.533	-0.46091255	-0.0490332499999988	9.83606995
2026-04-18 17:51:54.783	-0.46091255	-0.0490332499999988	9.83606995
2026-04-18 17:51:55.037	-0.4707192	-0.0490332499999988	9.8262633
2026-04-18 17:51:55.283	-0.4707192	-0.0490332499999988	9.8262633
2026-04-18 17:51:55.531	-0.46091255	-0.0490332499999988	9.8262633
2026-04-18 17:51:55.783	-0.46091255	-0.0490332499999988	9.8262633
2026-04-18 17:51:56.030	-0.46091255	-0.0490332499999988	9.8262633
2026-04-18 17:51:56.283	-0.46091255	-0.0490332499999988	9.8262633
2026-04-18 17:51:56.534	-0.46091255	-0.0490332499999988	9.8262633
2026-04-18 17:51:56.783	-0.46091255	-0.0490332499999988	9.8262633
2026-04-18 17:51:57.030	-0.46091255	-0.0490332499999988	9.8262633
2026-04-18 17:51:57.283	-0.46091255	-0.0490332499999988	9.8262633
2026-04-18 17:51:57.529	-0.46091255	-0.0490332499999988	9.8262633
2026-04-18 17:51:57.783	-0.46091255	-0.0490332499999988	9.8262633
2026-04-18 17:51:58.034	-0.4707192	-0.0490332499999988	9.8262633
2026-04-18 17:51:58.283	-0.4707192	-0.0490332499999988	9.8262633
2026-04-18 17:51:58.533	-0.4707192	-0.0490332499999988	9.8262633
2026-04-18 17:51:58.783	-0.4707192	-0.0490332499999988	9.8262633
2026-04-18 17:51:59.032	-0.46091255	-0.0490332499999988	9.83606995
2026-04-18 17:51:59.282	-0.46091255	-0.0490332499999988	9.83606995
2026-04-18 17:51:59.528	-0.46091255	-0.0490332499999988	9.8262633
2026-04-18 17:51:59.783	-0.46091255	-0.0490332499999988	9.8262633
2026-04-18 17:52:00.031	-0.46091255	-0.0490332499999988	9.8262633
2026-04-18 17:52:00.283	-0.46091255	-0.0490332499999988	9.8262633
2026-04-18 17:52:00.533	-0.4707192	-0.0490332499999988	9.8262633
2026-04-18 17:52:00.783	-0.4707192	-0.0490332499999988	9.8262633
2026-04-18 17:52:01.031	-0.46091255	-0.0490332499999988	9.8262633
2026-04-18 17:52:01.283	-0.46091255	-0.0490332499999988	9.8262633
2026-04-18 17:52:01.528	-0.46091255	-0.0490332499999988	9.8262633
2026-04-18 17:52:01.783	-0.46091255	-0.0490332499999988	9.8262633
2026-04-18 17:52:02.035	-0.4707192	-0.0490332499999988	9.8262633
2026-04-18 17:52:02.283	-0.4707192	-0.0490332499999988	9.8262633
2026-04-18 17:52:02.532	-0.4707192	-0.0588398999999988	9.8262633
2026-04-18 17:52:02.783	-0.4707192	-0.0588398999999988	9.8262633
2026-04-18 17:52:03.031	-0.46091255	-0.0490332499999988	9.8262633
2026-04-18 17:52:03.283	-0.46091255	-0.0490332499999988	9.8262633
2026-04-18 17:52:03.530	-0.4707192	-0.0490332499999988	9.8262633
2026-04-18 17:52:03.783	-0.4707192	-0.0490332499999988	9.8262633
2026-04-18 17:52:04.033	-0.46091255	-0.0490332499999988	9.83606995
2026-04-18 17:52:04.282	-0.46091255	-0.0490332499999988	9.83606995
2026-04-18 17:52:04.534	-0.46091255	-0.0490332499999988	9.8262633
2026-04-18 17:52:04.783	-0.46091255	-0.0490332499999988	9.8262633
2026-04-18 17:52:05.032	-0.46091255	-0.0588398999999988	9.83606995
2026-04-18 17:52:05.283	-0.46091255	-0.0588398999999988	9.83606995
2026-04-18 17:52:05.528	-0.46091255	-0.0490332499999988	9.83606995
2026-04-18 17:52:05.783	-0.46091255	-0.0490332499999988	9.83606995
2026-04-18 17:52:06.036	-0.46091255	-0.0490332499999988	9.8262633
2026-04-18 17:52:06.283	-0.46091255	-0.0490332499999988	9.8262633
2026-04-18 17:52:06.534	-0.46091255	-0.0490332499999988	9.8262633
2026-04-18 17:52:06.784	-0.46091255	-0.0490332499999988	9.8262633
2026-04-18 17:52:07.031	-0.46091255	-0.0490332499999988	9.8262633
2026-04-18 17:52:07.283	-0.46091255	-0.0490332499999988	9.8262633
2026-04-18 17:52:07.529	-0.46091255	-0.0588398999999988	9.83606995
2026-04-18 17:52:07.783	-0.46091255	-0.0588398999999988	9.83606995
2026-04-18 17:52:08.031	-0.46091255	-0.0490332499999988	9.8262633
2026-04-18 17:52:08.284	-0.46091255	-0.0490332499999988	9.8262633
2026-04-18 17:52:08.533	-0.46091255	-0.0490332499999988	9.83606995
2026-04-18 17:52:08.783	-0.46091255	-0.0490332499999988	9.83606995
2026-04-18 17:52:09.033	-0.46091255	-0.0490332499999988	9.8262633
2026-04-18 17:52:09.283	-0.46091255	-0.0490332499999988	9.8262633
2026-04-18 17:52:09.524	-0.46091255	-0.0490332499999988	9.83606995
2026-04-18 17:52:09.780	-0.46091255	-0.0490332499999988	9.83606995
2026-04-18 17:52:10.032	-0.46091255	-0.0490332499999988	9.83606995
2026-04-18 17:52:10.284	-0.46091255	-0.0490332499999988	9.83606995
2026-04-18 17:52:10.537	-0.46091255	-0.0490332499999988	9.8262633
2026-04-18 17:52:10.783	-0.46091255	-0.0490332499999988	9.8262633
2026-04-18 17:52:11.036	-0.46091255	-0.0490332499999988	9.8262633
2026-04-18 17:52:11.283	-0.46091255	-0.0490332499999988	9.8262633
2026-04-18 17:52:11.534	-0.4707192	-0.0490332499999988	9.8262633
2026-04-18 17:52:11.783	-0.4707192	-0.0490332499999988	9.8262633
2026-04-18 17:52:12.033	-0.46091255	-0.0490332499999988	9.8262633
2026-04-18 17:52:12.283	-0.46091255	-0.0490332499999988	9.8262633
2026-04-18 17:52:12.534	-0.46091255	-0.0490332499999988	9.83606995
2026-04-18 17:52:12.783	-0.46091255	-0.0490332499999988	9.83606995
2026-04-18 17:52:13.030	-0.46091255	-0.0588398999999988	9.8262633
2026-04-18 17:52:13.283	-0.46091255	-0.0588398999999988	9.8262633
2026-04-18 17:52:13.529	-0.4707192	-0.0490332499999988	9.8262633
2026-04-18 17:52:13.783	-0.4707192	-0.0490332499999988	9.8262633
2026-04-18 17:52:14.034	-0.4707192	-0.0588398999999988	9.8262633
2026-04-18 17:52:14.284	-0.4707192	-0.0588398999999988	9.8262633
2026-04-18 17:52:14.533	-0.46091255	-0.0490332499999988	9.8262633
2026-04-18 17:52:14.783	-0.46091255	-0.0490332499999988	9.8262633
2026-04-18 17:52:15.034	-0.46091255	-0.0490332499999988	9.81645665
2026-04-18 17:52:15.284	-0.46091255	-0.0490332499999988	9.81645665
2026-04-18 17:52:15.531	-0.46091255	-0.0490332499999988	9.81645665
2026-04-18 17:52:15.783	-0.46091255	-0.0490332499999988	9.81645665
2026-04-18 17:52:16.031	-0.46091255	-0.0490332499999988	9.8262633
2026-04-18 17:52:16.283	-0.46091255	-0.0490332499999988	9.8262633
2026-04-18 17:52:16.533	-0.46091255	-0.0490332499999988	9.83606995
2026-04-18 17:52:16.783	-0.46091255	-0.0490332499999988	9.83606995
2026-04-18 17:52:17.030	-0.46091255	-0.0588398999999988	9.83606995
2026-04-18 17:52:17.284	-0.46091255	-0.0588398999999988	9.83606995
2026-04-18 17:52:17.526	-0.46091255	-0.0490332499999988	9.83606995
2026-04-18 17:52:17.784	-0.46091255	-0.0490332499999988	9.83606995
2026-04-18 17:52:18.030	-0.46091255	-0.0490332499999988	9.83606995
2026-04-18 17:52:18.284	-0.46091255	-0.0490332499999988	9.83606995
2026-04-18 17:52:18.533	-0.46091255	-0.0490332499999988	9.8262633
2026-04-18 17:52:18.783	-0.46091255	-0.0490332499999988	9.8262633
2026-04-18 17:52:19.031	-0.46091255	-0.0588398999999988	9.8262633
2026-04-18 17:52:19.283	-0.46091255	-0.0588398999999988	9.8262633
2026-04-18 17:52:19.527	-0.46091255	-0.0490332499999988	9.83606995
2026-04-18 17:52:19.783	-0.46091255	-0.0490332499999988	9.83606995
2026-04-18 17:52:20.036	-0.46091255	-0.0490332499999988	9.8262633
2026-04-18 17:52:20.283	-0.46091255	-0.0490332499999988	9.8262633
2026-04-18 17:52:20.533	-0.46091255	-0.0490332499999988	9.8262633
2026-04-18 17:52:20.783	-0.46091255	-0.0490332499999988	9.8262633
2026-04-18 17:52:21.037	-0.46091255	-0.0490332499999988	9.83606995
2026-04-18 17:52:21.283	-0.46091255	-0.0490332499999988	9.83606995
2026-04-18 17:52:21.531	-0.46091255	-0.0490332499999988	9.83606995
2026-04-18 17:52:21.783	-0.46091255	-0.0490332499999988	9.83606995
2026-04-18 17:52:22.030	-0.46091255	-0.0588398999999988	9.8262633
2026-04-18 17:52:22.283	-0.46091255	-0.0588398999999988	9.8262633
2026-04-18 17:52:22.536	-0.4707192	-0.0490332499999988	9.83606995
2026-04-18 17:52:22.783	-0.4707192	-0.0490332499999988	9.83606995
2026-04-18 17:52:23.030	-0.46091255	-0.0490332499999988	9.8262633
2026-04-18 17:52:23.283	-0.46091255	-0.0490332499999988	9.8262633
2026-04-18 17:52:23.531	-0.4707192	-0.0490332499999988	9.8262633
2026-04-18 17:52:23.783	-0.4707192	-0.0490332499999988	9.8262633
2026-04-18 17:52:24.029	-0.46091255	-0.0490332499999988	9.83606995
2026-04-18 17:52:24.283	-0.46091255	-0.0490332499999988	9.83606995
2026-04-18 17:52:24.532	-0.46091255	-0.0490332499999988	9.83606995
2026-04-18 17:52:24.783	-0.46091255	-0.0490332499999988	9.83606995
2026-04-18 17:52:25.034	-0.46091255	-0.0490332499999988	9.83606995
2026-04-18 17:52:25.282	-0.46091255	-0.0490332499999988	9.83606995
2026-04-18 17:52:25.529	-0.46091255	-0.0490332499999988	9.8262633
2026-04-18 17:52:25.783	-0.46091255	-0.0490332499999988	9.8262633
2026-04-18 17:52:26.033	-0.46091255	-0.0490332499999988	9.8262633
2026-04-18 17:52:26.282	-0.46091255	-0.0490332499999988	9.8262633
2026-04-18 17:52:26.533	-0.4707192	-0.0490332499999988	9.8262633
2026-04-18 17:52:26.783	-0.4707192	-0.0490332499999988	9.8262633
2026-04-18 17:52:27.033	-0.46091255	-0.0490332499999988	9.8262633
2026-04-18 17:52:27.282	-0.46091255	-0.0490332499999988	9.8262633
2026-04-18 17:52:27.527	-0.46091255	-0.0490332499999988	9.8262633
2026-04-18 17:52:27.783	-0.46091255	-0.0490332499999988	9.8262633
2026-04-18 17:52:28.038	-0.46091255	-0.0588398999999988	9.8262633
2026-04-18 17:52:28.282	-0.46091255	-0.0588398999999988	9.8262633
2026-04-18 17:52:28.533	-0.46091255	-0.0490332499999988	9.8262633
2026-04-18 17:52:28.783	-0.46091255	-0.0490332499999988	9.8262633
2026-04-18 17:52:29.032	-0.46091255	-0.0490332499999988	9.8262633
2026-04-18 17:52:29.282	-0.46091255	-0.0490332499999988	9.8262633
2026-04-18 17:52:29.819	-0.4707192	-0.0588398999999988	9.8262633
2026-04-18 17:52:29.823	-0.4707192	-0.0588398999999988	9.8262633
2026-04-18 17:52:30.031	-0.46091255	-0.0490332499999988	9.8262633
2026-04-18 17:52:30.283	-0.46091255	-0.0490332499999988	9.8262633
2026-04-18 17:52:30.534	-0.4707192	-0.0490332499999988	9.81645665
2026-04-18 17:52:30.783	-0.4707192	-0.0490332499999988	9.81645665
2026-04-18 17:52:31.032	-0.46091255	-0.0490332499999988	9.8262633
2026-04-18 17:52:31.282	-0.46091255	-0.0490332499999988	9.8262633
2026-04-18 17:52:31.531	-0.46091255	-0.0490332499999988	9.8262633
2026-04-18 17:52:31.783	-0.46091255	-0.0490332499999988	9.8262633
2026-04-18 17:52:32.025	-0.46091255	-0.0490332499999988	9.8262633
2026-04-18 17:52:32.281	-0.46091255	-0.0490332499999988	9.8262633
2026-04-18 17:52:32.525	-0.46091255	-0.0490332499999988	9.8262633
2026-04-18 17:52:32.783	-0.46091255	-0.0490332499999988	9.8262633
2026-04-18 17:52:33.043	-0.4707192	-0.0588398999999988	9.8262633
2026-04-18 17:52:33.284	-0.4707192	-0.0588398999999988	9.8262633
2026-04-18 17:52:33.530	-0.46091255	-0.0490332499999988	9.8262633
2026-04-18 17:52:33.780	-0.46091255	-0.0490332499999988	9.8262633
2026-04-18 17:52:34.032	-0.46091255	-0.0490332499999988	9.8262633
2026-04-18 17:52:34.280	-0.46091255	-0.0490332499999988	9.8262633
2026-04-18 17:52:34.536	-0.46091255	-0.0490332499999988	9.8262633
2026-04-18 17:52:34.683	-0.46091255	-0.0588398999999988	9.81645665
2026-04-18 17:52:34.780	-0.46091255	-0.0490332499999988	9.8262633
2026-04-18 17:52:34.937	-0.46091255	-0.0588398999999988	9.81645665
2026-04-18 17:52:35.060	-0.46091255	-0.0490332499999988	9.8262633
2026-04-18 17:52:35.188	-0.46091255	-0.0490332499999988	9.8262633
2026-04-18 17:52:35.283	-0.46091255	-0.0490332499999988	9.8262633
2026-04-18 17:52:35.438	-0.46091255	-0.0490332499999988	9.8262633
2026-04-18 17:52:35.527	-0.46091255	-0.0490332499999988	9.83606995
2026-04-18 17:52:35.682	-0.46091255	-0.0490332499999988	9.8262633
2026-04-18 17:52:35.782	-0.46091255	-0.0490332499999988	9.83606995
2026-04-18 17:52:35.938	-0.46091255	-0.0490332499999988	9.8262633
2026-04-18 17:52:36.028	-0.46091255	-0.0588398999999988	9.8262633
2026-04-18 17:52:36.184	-0.4707192	-0.0490332499999988	9.8262633
2026-04-18 17:52:36.283	-0.46091255	-0.0588398999999988	9.8262633
2026-04-18 17:52:36.438	-0.4707192	-0.0490332499999988	9.8262633
2026-04-18 17:52:36.533	-0.46091255	-0.0490332499999988	9.8262633
2026-04-18 17:52:36.686	-0.46091255	-0.0490332499999988	9.81645665
2026-04-18 17:52:36.783	-0.46091255	-0.0490332499999988	9.8262633
2026-04-18 17:52:36.938	-0.46091255	-0.0490332499999988	9.81645665
2026-04-18 17:52:37.031	-0.46091255	-0.0490332499999988	9.83606995
2026-04-18 17:52:37.191	-0.46091255	-0.0490332499999988	9.8262633
2026-04-18 17:52:37.282	-0.46091255	-0.0490332499999988	9.83606995
2026-04-18 17:52:37.439	-0.46091255	-0.0490332499999988	9.8262633
2026-04-18 17:52:37.533	-0.46091255	-0.0490332499999988	9.8262633
2026-04-18 17:52:37.688	-0.46091255	-0.0490332499999988	9.8262633
2026-04-18 17:52:37.783	-0.46091255	-0.0490332499999988	9.8262633
2026-04-18 17:52:37.937	-0.46091255	-0.0490332499999988	9.8262633
2026-04-18 17:52:38.030	-0.4707192	-0.0490332499999988	9.8262633
2026-04-18 17:52:38.192	-0.46091255	-0.0490332499999988	9.81645665
2026-04-18 17:52:38.284	-0.4707192	-0.0490332499999988	9.8262633
2026-04-18 17:52:38.439	-0.46091255	-0.0490332499999988	9.81645665
2026-04-18 17:52:38.533	-0.46091255	-0.0490332499999988	9.8262633
2026-04-18 17:52:38.685	-0.46091255	-0.0490332499999988	9.81645665
2026-04-18 17:52:38.783	-0.46091255	-0.0490332499999988	9.8262633
2026-04-18 17:52:38.938	-0.46091255	-0.0490332499999988	9.81645665
2026-04-18 17:52:39.032	-0.46091255	-0.0490332499999988	9.8262633
2026-04-18 17:52:39.182	-0.46091255	-0.0490332499999988	9.81645665
2026-04-18 17:52:39.283	-0.46091255	-0.0490332499999988	9.8262633
2026-04-18 17:52:39.437	-0.46091255	-0.0490332499999988	9.81645665
2026-04-18 17:52:39.527	-0.46091255	-0.0490332499999988	9.8262633
2026-04-18 17:52:39.684	-0.46091255	-0.0490332499999988	9.81645665
2026-04-18 17:52:39.782	-0.46091255	-0.0490332499999988	9.8262633
2026-04-18 17:52:39.938	-0.46091255	-0.0490332499999988	9.81645665
2026-04-18 17:52:40.031	-0.46091255	-0.0490332499999988	9.8262633
2026-04-18 17:52:40.184	-0.46091255	-0.0490332499999988	9.8262633
2026-04-18 17:52:40.283	-0.46091255	-0.0490332499999988	9.8262633
2026-04-18 17:52:40.439	-0.46091255	-0.0490332499999988	9.8262633
2026-04-18 17:52:40.533	-0.46091255	-0.0490332499999988	9.8262633
2026-04-18 17:52:40.686	-0.4707192	-0.0490332499999988	9.8262633
2026-04-18 17:52:40.782	-0.46091255	-0.0490332499999988	9.8262633
2026-04-18 17:52:40.939	-0.4707192	-0.0490332499999988	9.8262633
2026-04-18 17:52:41.030	-0.46091255	-0.0490332499999988	9.8262633
2026-04-18 17:52:41.189	-0.46091255	-0.0490332499999988	9.8262633
2026-04-18 17:52:41.283	-0.46091255	-0.0490332499999988	9.8262633
2026-04-18 17:52:41.438	-0.46091255	-0.0490332499999988	9.8262633
2026-04-18 17:52:41.534	-0.46091255	-0.0588398999999988	9.8262633
2026-04-18 17:52:41.685	-0.46091255	-0.0490332499999988	9.81645665
2026-04-18 17:52:41.782	-0.46091255	-0.0588398999999988	9.8262633
2026-04-18 17:52:41.938	-0.46091255	-0.0490332499999988	9.81645665
2026-04-18 17:52:42.029	-0.46091255	-0.0490332499999988	9.8262633
2026-04-18 17:52:42.193	-0.46091255	-0.0490332499999988	9.81645665
2026-04-18 17:52:42.282	-0.46091255	-0.0490332499999988	9.8262633
2026-04-18 17:52:42.438	-0.46091255	-0.0490332499999988	9.81645665
2026-04-18 17:52:42.534	-0.46091255	-0.0490332499999988	9.8262633
2026-04-18 17:52:42.687	-0.46091255	-0.0490332499999988	9.8262633
2026-04-18 17:52:42.783	-0.46091255	-0.0490332499999988	9.8262633
2026-04-18 17:52:42.938	-0.46091255	-0.0490332499999988	9.8262633
2026-04-18 17:52:43.033	-0.46091255	-0.0490332499999988	9.8262633
2026-04-18 17:52:43.188	-0.46091255	-0.0490332499999988	9.8262633
2026-04-18 17:52:43.283	-0.46091255	-0.0490332499999988	9.8262633
2026-04-18 17:52:43.438	-0.46091255	-0.0490332499999988	9.8262633
2026-04-18 17:52:43.535	-0.4707192	-0.0588398999999988	9.83606995
2026-04-18 17:52:43.688	-0.4707192	-0.0490332499999988	9.8262633
2026-04-18 17:52:43.783	-0.4707192	-0.0588398999999988	9.83606995
2026-04-18 17:52:43.938	-0.4707192	-0.0490332499999988	9.8262633
2026-04-18 17:52:44.031	-0.46091255	-0.0490332499999988	9.83606995
2026-04-18 17:52:44.192	-0.4707192	-0.0490332499999988	9.8262633
2026-04-18 17:52:44.283	-0.46091255	-0.0490332499999988	9.83606995
2026-04-18 17:52:44.439	-0.4707192	-0.0490332499999988	9.8262633
2026-04-18 17:52:44.532	-0.46091255	-0.0588398999999988	9.83606995
2026-04-18 17:52:44.688	-0.46091255	-0.0490332499999988	9.81645665
2026-04-18 17:52:44.783	-0.46091255	-0.0588398999999988	9.83606995
2026-04-18 17:52:44.939	-0.46091255	-0.0490332499999988	9.81645665
2026-04-18 17:52:45.031	-0.4707192	-0.0490332499999988	9.8262633
2026-04-18 17:52:45.184	-0.46091255	-0.0490332499999988	9.81645665
2026-04-18 17:52:45.283	-0.4707192	-0.0490332499999988	9.8262633
2026-04-18 17:52:45.438	-0.46091255	-0.0490332499999988	9.81645665
2026-04-18 17:52:45.528	-0.46091255	-0.0490332499999988	9.8262633
2026-04-18 17:52:45.689	-0.46091255	-0.0490332499999988	9.8262633
2026-04-18 17:52:45.783	-0.46091255	-0.0490332499999988	9.8262633
2026-04-18 17:52:45.938	-0.46091255	-0.0490332499999988	9.8262633
2026-04-18 17:52:46.036	-0.46091255	-0.0490332499999988	9.8262633
2026-04-18 17:52:46.184	-0.4707192	-0.0490332499999988	9.8262633
2026-04-18 17:52:46.282	-0.46091255	-0.0490332499999988	9.8262633
2026-04-18 17:52:46.437	-0.4707192	-0.0490332499999988	9.8262633
2026-04-18 17:52:46.533	-0.46091255	-0.0588398999999988	9.83606995
2026-04-18 17:52:46.687	-0.46091255	-0.0490332499999988	9.81645665
2026-04-18 17:52:46.783	-0.46091255	-0.0588398999999988	9.83606995
2026-04-18 17:52:46.940	-0.46091255	-0.0490332499999988	9.81645665
2026-04-18 17:52:47.033	-0.4707192	-0.0490332499999988	9.83606995
2026-04-18 17:52:47.186	-0.4707192	-0.0490332499999988	9.8262633
2026-04-18 17:52:47.283	-0.4707192	-0.0490332499999988	9.83606995
2026-04-18 17:52:47.438	-0.4707192	-0.0490332499999988	9.8262633
2026-04-18 17:52:47.528	-0.46091255	-0.0588398999999988	9.83606995
2026-04-18 17:52:47.693	-0.46091255	-0.0490332499999988	9.81645665
2026-04-18 17:52:47.783	-0.46091255	-0.0588398999999988	9.83606995
2026-04-18 17:52:47.938	-0.46091255	-0.0490332499999988	9.81645665
2026-04-18 17:52:48.033	-0.46091255	-0.0490332499999988	9.83606995
2026-04-18 17:52:48.183	-0.4707192	-0.0490332499999988	9.81645665
2026-04-18 17:52:48.283	-0.46091255	-0.0490332499999988	9.83606995
2026-04-18 17:52:48.438	-0.4707192	-0.0490332499999988	9.81645665
2026-04-18 17:52:48.537	-0.46091255	-0.0490332499999988	9.8262633
2026-04-18 17:52:48.687	-0.46091255	-0.0490332499999988	9.81645665
2026-04-18 17:52:48.783	-0.46091255	-0.0490332499999988	9.8262633
2026-04-18 17:52:48.940	-0.46091255	-0.0490332499999988	9.81645665
2026-04-18 17:52:49.037	-0.46091255	-0.0490332499999988	9.8262633
2026-04-18 17:52:49.183	-0.4707192	-0.0490332499999988	9.81645665
2026-04-18 17:52:49.282	-0.46091255	-0.0490332499999988	9.8262633
2026-04-18 17:52:49.438	-0.4707192	-0.0490332499999988	9.81645665
2026-04-18 17:52:49.530	-0.4707192	-0.0588398999999988	9.83606995
2026-04-18 17:52:49.685	-0.46091255	-0.0490332499999988	9.81645665
2026-04-18 17:52:49.782	-0.4707192	-0.0588398999999988	9.83606995
2026-04-18 17:52:49.938	-0.46091255	-0.0490332499999988	9.81645665
2026-04-18 17:52:50.032	-0.46091255	-0.0490332499999988	9.8262633
2026-04-18 17:52:50.187	-0.46091255	-0.0490332499999988	9.81645665
2026-04-18 17:52:50.282	-0.46091255	-0.0490332499999988	9.8262633
2026-04-18 17:52:50.439	-0.46091255	-0.0490332499999988	9.81645665
2026-04-18 17:52:50.534	-0.46091255	-0.0490332499999988	9.8262633
2026-04-18 17:52:50.688	-0.46091255	-0.0490332499999988	9.8262633
2026-04-18 17:52:50.783	-0.46091255	-0.0490332499999988	9.8262633
2026-04-18 17:52:50.936	-0.46091255	-0.0490332499999988	9.8262633
2026-04-18 17:52:51.028	-0.4707192	-0.0588398999999988	9.83606995
2026-04-18 17:52:51.188	-0.46091255	-0.0490332499999988	9.8262633
2026-04-18 17:52:51.283	-0.4707192	-0.0588398999999988	9.83606995
2026-04-18 17:52:51.438	-0.46091255	-0.0490332499999988	9.8262633
2026-04-18 17:52:51.532	-0.46091255	-0.0588398999999988	9.8262633
2026-04-18 17:52:51.687	-0.4707192	-0.0490332499999988	9.8262633
2026-04-18 17:52:51.783	-0.46091255	-0.0588398999999988	9.8262633
2026-04-18 17:52:51.938	-0.4707192	-0.0490332499999988	9.8262633
2026-04-18 17:52:52.034	-0.46091255	-0.0490332499999988	9.8262633
2026-04-18 17:52:52.187	-0.46091255	-0.0490332499999988	9.8262633
2026-04-18 17:52:52.283	-0.46091255	-0.0490332499999988	9.8262633
2026-04-18 17:52:52.438	-0.46091255	-0.0490332499999988	9.8262633
2026-04-18 17:52:52.532	-0.4707192	-0.0490332499999988	9.8262633
2026-04-18 17:52:52.684	-0.46091255	-0.0490332499999988	9.8262633
2026-04-18 17:52:52.783	-0.4707192	-0.0490332499999988	9.8262633
2026-04-18 17:52:52.938	-0.46091255	-0.0490332499999988	9.8262633
2026-04-18 17:52:53.033	-0.4707192	-0.0588398999999988	9.8262633
2026-04-18 17:52:53.190	-0.46091255	-0.0490332499999988	9.8262633
2026-04-18 17:52:53.283	-0.4707192	-0.0588398999999988	9.8262633
2026-04-18 17:52:53.445	-0.46091255	-0.0490332499999988	9.8262633
2026-04-18 17:52:53.534	-0.46091255	-0.0490332499999988	9.8262633
2026-04-18 17:52:53.689	-0.46091255	-0.0490332499999988	9.8262633
2026-04-18 17:52:53.783	-0.46091255	-0.0490332499999988	9.8262633
2026-04-18 17:52:53.939	-0.46091255	-0.0490332499999988	9.8262633
2026-04-18 17:52:54.029	-0.46091255	-0.0490332499999988	9.83606995
2026-04-18 17:52:54.183	-0.46091255	-0.0490332499999988	9.8262633
2026-04-18 17:52:54.283	-0.46091255	-0.0490332499999988	9.83606995
2026-04-18 17:52:54.438	-0.46091255	-0.0490332499999988	9.8262633
2026-04-18 17:52:54.531	-0.46091255	-0.0490332499999988	9.83606995
2026-04-18 17:52:54.684	-0.46091255	-0.0490332499999988	9.83606995
2026-04-18 17:52:54.783	-0.46091255	-0.0490332499999988	9.83606995
2026-04-18 17:52:54.937	-0.46091255	-0.0490332499999988	9.83606995
2026-04-18 17:52:55.032	-0.46091255	-0.0490332499999988	9.83606995
2026-04-18 17:52:55.186	-0.46091255	-0.0490332499999988	9.83606995
2026-04-18 17:52:55.282	-0.46091255	-0.0490332499999988	9.83606995
2026-04-18 17:52:55.441	-0.46091255	-0.0490332499999988	9.83606995
2026-04-18 17:52:55.525	-0.4707192	-0.0490332499999988	9.8262633
2026-04-18 17:52:55.682	-0.46091255	-0.0490332499999988	9.83606995
2026-04-18 17:52:55.780	-0.4707192	-0.0490332499999988	9.8262633
2026-04-18 17:52:55.936	-0.46091255	-0.0490332499999988	9.83606995
2026-04-18 17:52:56.026	-0.4707192	-0.0490332499999988	9.8262633
2026-04-18 17:52:56.186	-0.4707192	-0.0490332499999988	9.8262633
2026-04-18 17:52:56.280	-0.4707192	-0.0490332499999988	9.8262633
2026-04-18 17:52:56.437	-0.4707192	-0.0490332499999988	9.8262633
2026-04-18 17:52:56.530	-0.46091255	-0.0490332499999988	9.8262633
2026-04-18 17:52:56.682	-0.46091255	-0.0490332499999988	9.8262633
2026-04-18 17:52:56.779	-0.46091255	-0.0490332499999988	9.8262633
2026-04-18 17:52:56.937	-0.46091255	-0.0490332499999988	9.8262633
2026-04-18 17:52:57.027	-0.46091255	-0.0588398999999988	9.8262633
2026-04-18 17:52:57.188	-0.46091255	-0.0490332499999988	9.8262633
2026-04-18 17:52:57.283	-0.46091255	-0.0588398999999988	9.8262633
2026-04-18 17:52:57.437	-0.46091255	-0.0490332499999988	9.8262633
2026-04-18 17:52:57.524	-0.4707192	-0.0490332499999988	9.81645665
2026-04-18 17:52:57.685	-0.4707192	-0.0490332499999988	9.8262633
2026-04-18 17:52:57.782	-0.4707192	-0.0490332499999988	9.81645665
2026-04-18 17:52:57.938	-0.4707192	-0.0490332499999988	9.8262633
2026-04-18 17:52:58.033	-0.4707192	-0.0588398999999988	9.8262633
2026-04-18 17:52:58.188	-0.46091255	-0.0490332499999988	9.8262633
2026-04-18 17:52:58.282	-0.4707192	-0.0588398999999988	9.8262633
2026-04-18 17:52:58.438	-0.46091255	-0.0490332499999988	9.8262633
2026-04-18 17:52:58.532	-0.46091255	-0.0490332499999988	9.8262633
2026-04-18 17:52:58.691	-0.46091255	-0.0490332499999988	9.8262633
2026-04-18 17:52:58.782	-0.46091255	-0.0490332499999988	9.8262633
2026-04-18 17:52:58.938	-0.46091255	-0.0490332499999988	9.8262633
2026-04-18 17:52:59.037	-0.46091255	-0.0490332499999988	9.8262633
2026-04-18 17:52:59.190	-0.46091255	-0.0490332499999988	9.8262633
2026-04-18 17:52:59.282	-0.46091255	-0.0490332499999988	9.8262633
2026-04-18 17:52:59.438	-0.46091255	-0.0490332499999988	9.8262633
2026-04-18 17:52:59.533	-0.4707192	-0.0588398999999988	9.83606995
2026-04-18 17:52:59.685	-0.46091255	-0.0490332499999988	9.81645665
2026-04-18 17:52:59.782	-0.4707192	-0.0588398999999988	9.83606995
2026-04-18 17:52:59.938	-0.46091255	-0.0490332499999988	9.81645665
2026-04-18 17:53:00.030	-0.46091255	-0.0490332499999988	9.8262633
2026-04-18 17:53:00.186	-0.46091255	-0.0490332499999988	9.8262633
2026-04-18 17:53:00.284	-0.46091255	-0.0490332499999988	9.8262633
2026-04-18 17:53:00.439	-0.46091255	-0.0490332499999988	9.8262633
2026-04-18 17:53:00.536	-0.46091255	-0.0490332499999988	9.8262633
2026-04-18 17:53:00.687	-0.46091255	-0.0490332499999988	9.81645665
2026-04-18 17:53:00.782	-0.46091255	-0.0490332499999988	9.8262633
2026-04-18 17:53:00.938	-0.46091255	-0.0490332499999988	9.81645665
2026-04-18 17:53:01.030	-0.46091255	-0.0490332499999988	9.8262633
2026-04-18 17:53:01.192	-0.46091255	-0.0490332499999988	9.81645665
2026-04-18 17:53:01.282	-0.46091255	-0.0490332499999988	9.8262633
2026-04-18 17:53:01.594	-0.46091255	-0.0588398999999988	9.8262633
2026-04-18 17:53:01.782	-0.46091255	-0.0588398999999988	9.8262633
2026-04-18 17:53:02.035	-0.46091255	-0.0490332499999988	9.8262633
2026-04-18 17:53:02.283	-0.46091255	-0.0490332499999988	9.8262633
2026-04-18 17:53:02.533	-0.46091255	-0.0490332499999988	9.8262633
2026-04-18 17:53:02.783	-0.46091255	-0.0490332499999988	9.8262633
2026-04-18 17:53:03.034	-0.46091255	-0.0490332499999988	9.83606995
2026-04-18 17:53:03.284	-0.46091255	-0.0490332499999988	9.83606995
2026-04-18 17:53:03.535	-0.46091255	-0.0490332499999988	9.8262633
2026-04-18 17:53:03.782	-0.46091255	-0.0490332499999988	9.8262633
2026-04-18 17:53:04.036	-0.4707192	-0.0490332499999988	9.8262633
2026-04-18 17:53:04.282	-0.4707192	-0.0490332499999988	9.8262633
2026-04-18 17:53:04.534	-0.4707192	-0.0588398999999988	9.83606995
2026-04-18 17:53:04.782	-0.4707192	-0.0588398999999988	9.83606995
2026-04-18 17:53:05.032	-0.46091255	-0.0490332499999988	9.8262633
2026-04-18 17:53:05.283	-0.46091255	-0.0490332499999988	9.8262633
2026-04-18 17:53:05.532	-0.4707192	-0.0490332499999988	9.8262633
2026-04-18 17:53:05.782	-0.4707192	-0.0490332499999988	9.8262633
2026-04-18 17:53:06.033	-0.46091255	-0.0588398999999988	9.8262633
2026-04-18 17:53:06.283	-0.46091255	-0.0588398999999988	9.8262633
2026-04-18 17:53:06.538	-0.46091255	-0.0490332499999988	9.8262633
2026-04-18 17:53:06.782	-0.46091255	-0.0490332499999988	9.8262633
2026-04-18 17:53:07.024	-0.46091255	-0.0490332499999988	9.8262633
2026-04-18 17:53:07.281	-0.46091255	-0.0490332499999988	9.8262633
2026-04-18 17:53:07.523	-0.46091255	-0.0490332499999988	9.83606995
2026-04-18 17:53:07.782	-0.46091255	-0.0490332499999988	9.83606995
2026-04-18 17:53:08.031	-0.46091255	-0.0490332499999988	9.83606995
2026-04-18 17:53:08.283	-0.46091255	-0.0490332499999988	9.83606995
2026-04-18 17:53:08.534	-0.46091255	-0.0588398999999988	9.8262633
2026-04-18 17:53:08.783	-0.46091255	-0.0588398999999988	9.8262633
2026-04-18 17:53:09.029	-0.4707192	-0.0490332499999988	9.8262633
2026-04-18 17:53:09.283	-0.4707192	-0.0490332499999988	9.8262633
2026-04-18 17:53:09.528	-0.46091255	-0.0490332499999988	9.8262633
2026-04-18 17:53:09.782	-0.46091255	-0.0490332499999988	9.8262633
2026-04-18 17:53:10.031	-0.46091255	-0.0490332499999988	9.8262633
2026-04-18 17:53:10.283	-0.46091255	-0.0490332499999988	9.8262633
2026-04-18 17:53:10.539	-0.46091255	-0.0490332499999988	9.8262633
2026-04-18 17:53:10.782	-0.46091255	-0.0490332499999988	9.8262633
2026-04-18 17:53:11.032	-0.4707192	-0.0588398999999988	9.8262633
2026-04-18 17:53:11.285	-0.4707192	-0.0588398999999988	9.8262633
2026-04-18 17:53:11.530	-0.46091255	-0.0490332499999988	9.83606995
2026-04-18 17:53:11.782	-0.46091255	-0.0490332499999988	9.83606995
2026-04-18 17:53:12.039	-0.46091255	-0.0490332499999988	9.83606995
2026-04-18 17:53:12.282	-0.46091255	-0.0490332499999988	9.83606995
2026-04-18 17:53:12.536	-0.46091255	-0.0490332499999988	9.83606995
2026-04-18 17:53:12.781	-0.46091255	-0.0490332499999988	9.83606995
2026-04-18 17:53:13.033	-0.46091255	-0.0490332499999988	9.8262633
2026-04-18 17:53:13.283	-0.46091255	-0.0490332499999988	9.8262633
2026-04-18 17:53:13.534	-0.4707192	-0.0490332499999988	9.8262633
2026-04-18 17:53:13.782	-0.4707192	-0.0490332499999988	9.8262633
2026-04-18 17:53:14.038	-0.46091255	-0.0490332499999988	9.8262633
2026-04-18 17:53:14.282	-0.46091255	-0.0490332499999988	9.8262633
2026-04-18 17:53:14.532	-0.46091255	-0.0490332499999988	9.8262633
2026-04-18 17:53:14.783	-0.46091255	-0.0490332499999988	9.8262633
2026-04-18 17:53:15.031	-0.4707192	-0.0490332499999988	9.8262633
2026-04-18 17:53:15.282	-0.4707192	-0.0490332499999988	9.8262633
2026-04-18 17:53:15.535	-0.4707192	-0.0490332499999988	9.8262633
2026-04-18 17:53:15.780	-0.4707192	-0.0490332499999988	9.8262633
2026-04-18 17:53:16.032	-0.46091255	-0.0490332499999988	9.83606995
2026-04-18 17:53:16.282	-0.46091255	-0.0490332499999988	9.83606995
2026-04-18 17:53:16.535	-0.46091255	-0.0490332499999988	9.8262633
2026-04-18 17:53:16.783	-0.46091255	-0.0490332499999988	9.8262633
2026-04-18 17:53:17.033	-0.46091255	-0.0490332499999988	9.8262633
2026-04-18 17:53:17.282	-0.46091255	-0.0490332499999988	9.8262633
2026-04-18 17:53:17.529	-0.46091255	-0.0588398999999988	9.8262633
2026-04-18 17:53:17.783	-0.46091255	-0.0588398999999988	9.8262633
2026-04-18 17:53:18.030	-0.4707192	-0.0490332499999988	9.8262633
2026-04-18 17:53:18.282	-0.4707192	-0.0490332499999988	9.8262633
2026-04-18 17:53:18.533	-0.46091255	-0.0490332499999988	9.83606995
2026-04-18 17:53:18.783	-0.46091255	-0.0490332499999988	9.83606995
2026-04-18 17:53:19.035	-0.4707192	-0.0490332499999988	9.83606995
2026-04-18 17:53:19.281	-0.4707192	-0.0490332499999988	9.83606995
2026-04-18 17:53:19.533	-0.46091255	-0.0490332499999988	9.83606995
2026-04-18 17:53:19.783	-0.46091255	-0.0490332499999988	9.83606995
2026-04-18 17:53:20.030	-0.46091255	-0.0490332499999988	9.83606995
2026-04-18 17:53:20.282	-0.46091255	-0.0490332499999988	9.83606995
2026-04-18 17:53:20.535	-0.46091255	-0.0490332499999988	9.83606995
2026-04-18 17:53:20.780	-0.46091255	-0.0490332499999988	9.83606995
2026-04-18 17:53:21.025	-0.46091255	-0.0490332499999988	9.83606995
2026-04-18 17:53:21.281	-0.46091255	-0.0490332499999988	9.83606995
2026-04-18 17:53:21.525	-0.46091255	-0.0490332499999988	9.8262633
2026-04-18 17:53:21.784	-0.46091255	-0.0490332499999988	9.8262633
2026-04-18 17:53:22.036	-0.46091255	-0.0588398999999988	9.8262633
2026-04-18 17:53:22.283	-0.46091255	-0.0588398999999988	9.8262633
2026-04-18 17:53:22.532	-0.46091255	-0.0490332499999988	9.8262633
2026-04-18 17:53:22.780	-0.46091255	-0.0490332499999988	9.8262633
2026-04-18 17:53:23.034	-0.4707192	-0.0490332499999988	9.8262633
2026-04-18 17:53:23.283	-0.4707192	-0.0490332499999988	9.8262633
2026-04-18 17:53:23.526	-0.4707192	-0.0490332499999988	9.8262633
2026-04-18 17:53:23.782	-0.4707192	-0.0490332499999988	9.8262633
2026-04-18 17:53:24.032	-0.46091255	-0.0490332499999988	9.83606995
2026-04-18 17:53:24.286	-0.46091255	-0.0490332499999988	9.83606995
2026-04-18 17:53:24.533	-0.4707192	-0.0588398999999988	9.8262633
2026-04-18 17:53:24.783	-0.4707192	-0.0588398999999988	9.8262633
2026-04-18 17:53:25.028	-0.4707192	-0.0490332499999988	9.8262633
2026-04-18 17:53:25.284	-0.4707192	-0.0490332499999988	9.8262633
2026-04-18 17:53:25.531	-0.4707192	-0.0490332499999988	9.8262633
2026-04-18 17:53:25.782	-0.4707192	-0.0490332499999988	9.8262633
2026-04-18 17:53:26.033	-0.46091255	-0.0490332499999988	9.81645665
2026-04-18 17:53:26.283	-0.46091255	-0.0490332499999988	9.81645665
2026-04-18 17:53:26.535	-0.46091255	-0.0490332499999988	9.81645665
2026-04-18 17:53:26.782	-0.46091255	-0.0490332499999988	9.81645665
2026-04-18 17:53:27.030	-0.46091255	-0.0490332499999988	9.8262633
2026-04-18 17:53:27.283	-0.46091255	-0.0490332499999988	9.8262633
2026-04-18 17:53:27.531	-0.46091255	-0.0588398999999988	9.8262633
2026-04-18 17:53:27.782	-0.46091255	-0.0588398999999988	9.8262633
2026-04-18 17:53:28.043	-0.46091255	-0.0490332499999988	9.8262633
2026-04-18 17:53:28.284	-0.46091255	-0.0490332499999988	9.8262633
2026-04-18 17:53:28.535	-0.46091255	-0.0490332499999988	9.8262633
2026-04-18 17:53:28.782	-0.46091255	-0.0490332499999988	9.8262633
2026-04-18 17:53:29.031	-0.46091255	-0.0490332499999988	9.83606995
2026-04-18 17:53:29.283	-0.46091255	-0.0490332499999988	9.83606995
2026-04-18 17:53:29.530	-0.46091255	-0.0490332499999988	9.83606995
2026-04-18 17:53:29.782	-0.46091255	-0.0490332499999988	9.83606995
2026-04-18 17:53:30.034	-0.46091255	-0.0490332499999988	9.8262633
2026-04-18 17:53:30.283	-0.46091255	-0.0490332499999988	9.8262633
2026-04-18 17:53:30.536	-0.46091255	-0.0490332499999988	9.8262633
2026-04-18 17:53:30.782	-0.46091255	-0.0490332499999988	9.8262633
2026-04-18 17:53:31.033	-0.4707192	-0.0490332499999988	9.8262633
2026-04-18 17:53:31.284	-0.4707192	-0.0490332499999988	9.8262633
2026-04-18 17:53:31.531	-0.46091255	-0.0490332499999988	9.83606995
2026-04-18 17:53:31.782	-0.46091255	-0.0490332499999988	9.83606995
2026-04-18 17:53:32.038	-0.46091255	-0.0490332499999988	9.8262633
2026-04-18 17:53:32.283	-0.46091255	-0.0490332499999988	9.8262633
2026-04-18 17:53:32.536	-0.46091255	-0.0490332499999988	9.8262633
2026-04-18 17:53:32.783	-0.46091255	-0.0490332499999988	9.8262633
2026-04-18 17:53:33.371	-0.46091255	-0.0490332499999988	9.83606995
2026-04-18 17:53:33.377	-0.46091255	-0.0490332499999988	9.83606995
2026-04-18 17:53:33.531	-0.46091255	-0.0490332499999988	9.8262633
2026-04-18 17:53:33.782	-0.46091255	-0.0490332499999988	9.8262633
2026-04-18 17:53:34.030	-0.46091255	-0.0490332499999988	9.8262633
2026-04-18 17:53:34.282	-0.46091255	-0.0490332499999988	9.8262633
2026-04-18 17:53:34.534	-0.4707192	-0.0490332499999988	9.8262633
2026-04-18 17:53:34.782	-0.4707192	-0.0490332499999988	9.8262633
2026-04-18 17:53:35.033	-0.46091255	-0.0588398999999988	9.83606995
2026-04-18 17:53:35.282	-0.46091255	-0.0588398999999988	9.83606995
2026-04-18 17:53:35.534	-0.4707192	-0.0490332499999988	9.83606995
2026-04-18 17:53:35.782	-0.4707192	-0.0490332499999988	9.83606995
2026-04-18 17:53:36.035	-0.46091255	-0.0490332499999988	9.83606995
2026-04-18 17:53:36.283	-0.46091255	-0.0490332499999988	9.83606995
2026-04-18 17:53:36.539	-0.46091255	-0.0490332499999988	9.8262633
2026-04-18 17:53:36.782	-0.46091255	-0.0490332499999988	9.8262633
2026-04-18 17:53:37.030	-0.4707192	-0.0490332499999988	9.8262633
2026-04-18 17:53:37.282	-0.4707192	-0.0490332499999988	9.8262633
2026-04-18 17:53:37.529	-0.46091255	-0.0490332499999988	9.8262633
2026-04-18 17:53:37.782	-0.46091255	-0.0490332499999988	9.8262633
2026-04-18 17:53:38.034	-0.46091255	-0.0490332499999988	9.8262633
2026-04-18 17:53:38.283	-0.46091255	-0.0490332499999988	9.8262633
2026-04-18 17:53:38.539	-0.46091255	-0.0588398999999988	9.8262633
2026-04-18 17:53:38.782	-0.46091255	-0.0588398999999988	9.8262633
2026-04-18 17:53:39.033	-0.46091255	-0.0490332499999988	9.8262633
2026-04-18 17:53:39.283	-0.46091255	-0.0490332499999988	9.8262633
2026-04-18 17:53:39.540	-0.4707192	-0.0490332499999988	9.83606995
2026-04-18 17:53:39.780	-0.4707192	-0.0490332499999988	9.83606995
2026-04-18 17:53:40.025	-0.46091255	-0.0490332499999988	9.83606995
2026-04-18 17:53:40.283	-0.46091255	-0.0490332499999988	9.83606995
2026-04-18 17:53:40.535	-0.46091255	-0.0588398999999988	9.8262633
2026-04-18 17:53:40.783	-0.46091255	-0.0588398999999988	9.8262633
2026-04-18 17:53:41.036	-0.46091255	-0.0588398999999988	9.8262633
2026-04-18 17:53:41.283	-0.46091255	-0.0588398999999988	9.8262633
2026-04-18 17:53:41.533	-0.4707192	-0.0588398999999988	9.8262633
2026-04-18 17:53:41.784	-0.4707192	-0.0588398999999988	9.8262633
2026-04-18 17:53:42.025	-0.46091255	-0.0490332499999988	9.8262633
2026-04-18 17:53:42.282	-0.46091255	-0.0490332499999988	9.8262633
2026-04-18 17:53:42.537	-0.4707192	-0.0588398999999988	9.8262633
2026-04-18 17:53:42.783	-0.4707192	-0.0588398999999988	9.8262633
2026-04-18 17:53:43.038	-0.46091255	-0.0490332499999988	9.8262633
2026-04-18 17:53:43.283	-0.46091255	-0.0490332499999988	9.8262633
2026-04-18 17:53:43.537	-0.46091255	-0.0490332499999988	9.8262633
2026-04-18 17:53:43.782	-0.46091255	-0.0490332499999988	9.8262633
2026-04-18 17:53:44.032	-0.46091255	-0.0490332499999988	9.8262633
2026-04-18 17:53:44.283	-0.46091255	-0.0490332499999988	9.8262633
2026-04-18 17:53:44.536	-0.4707192	-0.0490332499999988	9.83606995
2026-04-18 17:53:44.783	-0.4707192	-0.0490332499999988	9.83606995
2026-04-18 17:53:45.026	-0.4707192	-0.0490332499999988	9.83606995
2026-04-18 17:53:45.283	-0.4707192	-0.0490332499999988	9.83606995
2026-04-18 17:53:45.538	-0.46091255	-0.0490332499999988	9.83606995
2026-04-18 17:53:45.782	-0.46091255	-0.0490332499999988	9.83606995
2026-04-18 17:53:46.031	-0.4707192	-0.0490332499999988	9.8262633
2026-04-18 17:53:46.281	-0.4707192	-0.0490332499999988	9.8262633
2026-04-18 17:53:46.543	-0.4707192	-0.0588398999999988	9.8262633
2026-04-18 17:53:46.781	-0.4707192	-0.0588398999999988	9.8262633
2026-04-18 17:53:47.037	-0.46091255	-0.0588398999999988	9.8262633
2026-04-18 17:53:47.283	-0.46091255	-0.0588398999999988	9.8262633
2026-04-18 17:53:47.525	-0.4707192	-0.0490332499999988	9.8262633
2026-04-18 17:53:47.782	-0.4707192	-0.0490332499999988	9.8262633
2026-04-18 17:53:48.031	-0.4707192	-0.0490332499999988	9.8262633
2026-04-18 17:53:48.284	-0.4707192	-0.0490332499999988	9.8262633
2026-04-18 17:53:48.537	-0.46091255	-0.0490332499999988	9.8262633
2026-04-18 17:53:48.782	-0.46091255	-0.0490332499999988	9.8262633
2026-04-18 17:53:49.025	-0.46091255	-0.0490332499999988	9.83606995
2026-04-18 17:53:49.283	-0.46091255	-0.0490332499999988	9.83606995
2026-04-18 17:53:49.536	-0.46091255	-0.0490332499999988	9.83606995
2026-04-18 17:53:49.782	-0.46091255	-0.0490332499999988	9.83606995
2026-04-18 17:53:50.033	-0.46091255	-0.0490332499999988	9.83606995
2026-04-18 17:53:50.283	-0.46091255	-0.0490332499999988	9.83606995
2026-04-18 17:53:50.537	-0.46091255	-0.0490332499999988	9.8262633
2026-04-18 17:53:50.782	-0.46091255	-0.0490332499999988	9.8262633
2026-04-18 17:53:51.032	-0.46091255	-0.0490332499999988	9.8262633
2026-04-18 17:53:51.283	-0.46091255	-0.0490332499999988	9.8262633
2026-04-18 17:53:51.530	-0.46091255	-0.0490332499999988	9.8262633
2026-04-18 17:53:51.782	-0.46091255	-0.0490332499999988	9.8262633
2026-04-18 17:53:52.031	-0.46091255	-0.0588398999999988	9.8262633
2026-04-18 17:53:52.280	-0.46091255	-0.0588398999999988	9.8262633
2026-04-18 17:53:52.534	-0.46091255	-0.0490332499999988	9.8262633
2026-04-18 17:53:52.779	-0.46091255	-0.0490332499999988	9.8262633
2026-04-18 17:53:53.023	-0.4707192	-0.0490332499999988	9.8262633
2026-04-18 17:53:53.280	-0.4707192	-0.0490332499999988	9.8262633
2026-04-18 17:53:53.523	-0.46091255	-0.0490332499999988	9.8262633
2026-04-18 17:53:53.780	-0.46091255	-0.0490332499999988	9.8262633
2026-04-18 17:53:54.027	-0.4707192	-0.0490332499999988	9.8262633
2026-04-18 17:53:54.280	-0.4707192	-0.0490332499999988	9.8262633
2026-04-18 17:53:54.526	-0.46091255	-0.0588398999999988	9.8262633
2026-04-18 17:53:54.779	-0.46091255	-0.0588398999999988	9.8262633
2026-04-18 17:53:55.028	-0.46091255	-0.0490332499999988	9.8262633
2026-04-18 17:53:55.280	-0.46091255	-0.0490332499999988	9.8262633
2026-04-18 17:53:55.525	-0.46091255	-0.0490332499999988	9.8262633
2026-04-18 17:53:55.779	-0.46091255	-0.0490332499999988	9.8262633
2026-04-18 17:53:56.027	-0.4707192	-0.0588398999999988	9.83606995
2026-04-18 17:53:56.280	-0.4707192	-0.0588398999999988	9.83606995
2026-04-18 17:53:56.533	-0.46091255	-0.0490332499999988	9.83606995
2026-04-18 17:53:56.779	-0.46091255	-0.0490332499999988	9.83606995
2026-04-18 17:53:57.027	-0.46091255	-0.0490332499999988	9.83606995
2026-04-18 17:53:57.280	-0.46091255	-0.0490332499999988	9.83606995
2026-04-18 17:53:57.531	-0.4707192	-0.0490332499999988	9.8262633
2026-04-18 17:53:57.782	-0.4707192	-0.0490332499999988	9.8262633
2026-04-18 17:53:58.034	-0.46091255	-0.0588398999999988	9.8262633
2026-04-18 17:53:58.284	-0.46091255	-0.0588398999999988	9.8262633
2026-04-18 17:53:58.527	-0.46091255	-0.0588398999999988	9.8262633
2026-04-18 17:53:58.780	-0.46091255	-0.0588398999999988	9.8262633
2026-04-18 17:53:59.030	-0.46091255	-0.0490332499999988	9.8262633
2026-04-18 17:53:59.280	-0.46091255	-0.0490332499999988	9.8262633
2026-04-18 17:53:59.535	-0.4707192	-0.0490332499999988	9.83606995
2026-04-18 17:53:59.782	-0.4707192	-0.0490332499999988	9.83606995
2026-04-18 17:54:00.031	-0.4707192	-0.0490332499999988	9.8262633
2026-04-18 17:54:00.282	-0.4707192	-0.0490332499999988	9.8262633
2026-04-18 17:54:00.541	-0.46091255	-0.0490332499999988	9.8262633
2026-04-18 17:54:00.782	-0.46091255	-0.0490332499999988	9.8262633
2026-04-18 17:54:01.032	-0.46091255	-0.0490332499999988	9.8262633
2026-04-18 17:54:01.283	-0.46091255	-0.0490332499999988	9.8262633
2026-04-18 17:54:01.532	-0.4707192	-0.0490332499999988	9.8262633
2026-04-18 17:54:01.783	-0.4707192	-0.0490332499999988	9.8262633
2026-04-18 17:54:02.033	-0.4707192	-0.0490332499999988	9.8262633
2026-04-18 17:54:02.282	-0.4707192	-0.0490332499999988	9.8262633
2026-04-18 17:54:02.537	-0.46091255	-0.0490332499999988	9.8262633
2026-04-18 17:54:02.783	-0.46091255	-0.0490332499999988	9.8262633
2026-04-18 17:54:03.031	-0.4707192	-0.0490332499999988	9.8262633
2026-04-18 17:54:03.283	-0.4707192	-0.0490332499999988	9.8262633
2026-04-18 17:54:03.533	-0.4707192	-0.0490332499999988	9.8262633
2026-04-18 17:54:03.783	-0.4707192	-0.0490332499999988	9.8262633
2026-04-18 17:54:04.032	-0.4707192	-0.0588398999999988	9.8262633
2026-04-18 17:54:04.282	-0.4707192	-0.0588398999999988	9.8262633
2026-04-18 17:54:04.536	-0.46091255	-0.0588398999999988	9.8262633
2026-04-18 17:54:04.782	-0.46091255	-0.0588398999999988	9.8262633
2026-04-18 17:54:05.032	-0.46091255	-0.0588398999999988	9.83606995
2026-04-18 17:54:05.282	-0.46091255	-0.0588398999999988	9.83606995
2026-04-18 17:54:05.530	-0.4707192	-0.0490332499999988	9.83606995
2026-04-18 17:54:05.783	-0.4707192	-0.0490332499999988	9.83606995
2026-04-18 17:54:06.035	-0.46091255	-0.0490332499999988	9.83606995
2026-04-18 17:54:06.282	-0.46091255	-0.0490332499999988	9.83606995
2026-04-18 17:54:06.538	-0.4707192	-0.0588398999999988	9.83606995
2026-04-18 17:54:06.783	-0.4707192	-0.0588398999999988	9.83606995
2026-04-18 17:54:07.034	-0.4707192	-0.0490332499999988	9.8262633
2026-04-18 17:54:07.282	-0.4707192	-0.0490332499999988	9.8262633
2026-04-18 17:54:07.532	-0.46091255	-0.0490332499999988	9.8262633
2026-04-18 17:54:07.782	-0.46091255	-0.0490332499999988	9.8262633
2026-04-18 17:54:08.031	-0.46091255	-0.0490332499999988	9.8262633
2026-04-18 17:54:08.282	-0.46091255	-0.0490332499999988	9.8262633
2026-04-18 17:54:08.573	-0.4707192	-0.0490332499999988	9.8262633
2026-04-18 17:54:08.782	-0.4707192	-0.0490332499999988	9.8262633
2026-04-18 17:54:09.032	-0.46091255	-0.0588398999999988	9.8262633
2026-04-18 17:54:09.282	-0.46091255	-0.0588398999999988	9.8262633
2026-04-18 17:54:09.537	-0.4707192	-0.0490332499999988	9.83606995
2026-04-18 17:54:09.783	-0.4707192	-0.0490332499999988	9.83606995
2026-04-18 17:54:10.032	-0.46091255	-0.0490332499999988	9.83606995
2026-04-18 17:54:10.283	-0.46091255	-0.0490332499999988	9.83606995
2026-04-18 17:54:10.537	-0.46091255	-0.0490332499999988	9.8262633
2026-04-18 17:54:10.782	-0.46091255	-0.0490332499999988	9.8262633
2026-04-18 17:54:11.034	-0.4707192	-0.0490332499999988	9.83606995
2026-04-18 17:54:11.282	-0.4707192	-0.0490332499999988	9.83606995
2026-04-18 17:54:11.534	-0.46091255	-0.0490332499999988	9.83606995
2026-04-18 17:54:11.781	-0.46091255	-0.0490332499999988	9.83606995
2026-04-18 17:54:12.032	-0.4707192	-0.0588398999999988	9.83606995
2026-04-18 17:54:12.283	-0.4707192	-0.0588398999999988	9.83606995
2026-04-18 17:54:12.537	-0.46091255	-0.0490332499999988	9.8262633
2026-04-18 17:54:12.782	-0.46091255	-0.0490332499999988	9.8262633
2026-04-18 17:54:13.037	-0.46091255	-0.0490332499999988	9.83606995
2026-04-18 17:54:13.283	-0.46091255	-0.0490332499999988	9.83606995
2026-04-18 17:54:13.523	-0.46091255	-0.0490332499999988	9.8262633
2026-04-18 17:54:13.782	-0.46091255	-0.0490332499999988	9.8262633
2026-04-18 17:54:14.033	-0.46091255	-0.0490332499999988	9.8262633
2026-04-18 17:54:14.283	-0.46091255	-0.0490332499999988	9.8262633
2026-04-18 17:54:14.535	-0.46091255	-0.0490332499999988	9.8262633
2026-04-18 17:54:14.779	-0.46091255	-0.0490332499999988	9.8262633
2026-04-18 17:54:15.031	-0.4707192	-0.0588398999999988	9.83606995
2026-04-18 17:54:15.283	-0.4707192	-0.0588398999999988	9.83606995
2026-04-18 17:54:15.534	-0.46091255	-0.0490332499999988	9.83606995
2026-04-18 17:54:15.782	-0.46091255	-0.0490332499999988	9.83606995
2026-04-18 17:54:16.033	-0.4707192	-0.0490332499999988	9.83606995
2026-04-18 17:54:16.283	-0.4707192	-0.0490332499999988	9.83606995
2026-04-18 17:54:16.539	-0.4707192	-0.0490332499999988	9.8262633
2026-04-18 17:54:16.782	-0.4707192	-0.0490332499999988	9.8262633
2026-04-18 17:54:17.029	-0.4707192	-0.0588398999999988	9.8262633
2026-04-18 17:54:17.284	-0.4707192	-0.0588398999999988	9.8262633
2026-04-18 17:54:17.532	-0.46091255	-0.0490332499999988	9.8262633
2026-04-18 17:54:17.782	-0.46091255	-0.0490332499999988	9.8262633
2026-04-18 17:54:18.032	-0.4707192	-0.0490332499999988	9.8262633
2026-04-18 17:54:18.283	-0.4707192	-0.0490332499999988	9.8262633
2026-04-18 17:54:18.579	-0.46091255	-0.0588398999999988	9.83606995
2026-04-18 17:54:18.782	-0.46091255	-0.0588398999999988	9.83606995
2026-04-18 17:54:19.030	-0.46091255	-0.0490332499999988	9.8262633
2026-04-18 17:54:19.286	-0.46091255	-0.0490332499999988	9.8262633
2026-04-18 17:54:19.533	-0.46091255	-0.0588398999999988	9.8262633
2026-04-18 17:54:19.783	-0.46091255	-0.0588398999999988	9.8262633
2026-04-18 17:54:20.033	-0.4707192	-0.0588398999999988	9.8262633
2026-04-18 17:54:20.280	-0.4707192	-0.0588398999999988	9.8262633
2026-04-18 17:54:20.537	-0.46091255	-0.0588398999999988	9.8262633
2026-04-18 17:54:20.784	-0.46091255	-0.0588398999999988	9.8262633
2026-04-18 17:54:21.028	-0.46091255	-0.0490332499999988	9.8262633
2026-04-18 17:54:21.282	-0.46091255	-0.0490332499999988	9.8262633
2026-04-18 17:54:21.533	-0.46091255	-0.0490332499999988	9.8262633
2026-04-18 17:54:21.782	-0.46091255	-0.0490332499999988	9.8262633
2026-04-18 17:54:22.032	-0.46091255	-0.0490332499999988	9.83606995
2026-04-18 17:54:22.283	-0.46091255	-0.0490332499999988	9.83606995
2026-04-18 17:54:22.536	-0.46091255	-0.0588398999999988	9.8262633
2026-04-18 17:54:22.782	-0.46091255	-0.0588398999999988	9.8262633
2026-04-18 17:54:23.029	-0.46091255	-0.0490332499999988	9.83606995
2026-04-18 17:54:23.279	-0.46091255	-0.0490332499999988	9.83606995
2026-04-18 17:54:23.522	-0.4707192	-0.0588398999999988	9.83606995
2026-04-18 17:54:23.787	-0.4707192	-0.0588398999999988	9.83606995
2026-04-18 17:54:23.933	-0.4707192	-0.0588398999999988	9.8262633
2026-04-18 17:54:24.022	-0.4707192	-0.0588398999999988	9.8262633
2026-04-18 17:54:24.090	-0.4707192	-0.0588398999999988	9.8262633
2026-04-18 17:54:24.283	-0.4707192	-0.0588398999999988	9.8262633
2026-04-18 17:54:24.343	-0.46091255	-0.0490332499999988	9.8262633
2026-04-18 17:54:24.536	-0.4707192	-0.0588398999999988	9.8262633
2026-04-18 17:54:24.592	-0.46091255	-0.0490332499999988	9.8262633
2026-04-18 17:54:24.783	-0.4707192	-0.0588398999999988	9.8262633
2026-04-18 17:54:24.840	-0.46091255	-0.0490332499999988	9.8262633
2026-04-18 17:54:25.025	-0.46091255	-0.0588398999999988	9.8262633
2026-04-18 17:54:25.092	-0.46091255	-0.0490332499999988	9.8262633
2026-04-18 17:54:25.282	-0.46091255	-0.0588398999999988	9.8262633
2026-04-18 17:54:25.341	-0.4707192	-0.0490332499999988	9.81645665
2026-04-18 17:54:25.529	-0.4707192	-0.0490332499999988	9.8262633
2026-04-18 17:54:25.592	-0.4707192	-0.0490332499999988	9.81645665
2026-04-18 17:54:25.782	-0.4707192	-0.0490332499999988	9.8262633
2026-04-18 17:54:25.837	-0.46091255	-0.0588398999999988	9.81645665
2026-04-18 17:54:26.031	-0.46091255	-0.0490332499999988	9.8262633
2026-04-18 17:54:26.092	-0.46091255	-0.0588398999999988	9.81645665
2026-04-18 17:54:26.282	-0.46091255	-0.0490332499999988	9.8262633
2026-04-18 17:54:26.343	-0.46091255	-0.0490332499999988	9.8262633
2026-04-18 17:54:26.537	-0.46091255	-0.0490332499999988	9.8262633
2026-04-18 17:54:26.592	-0.46091255	-0.0490332499999988	9.8262633
2026-04-18 17:54:26.782	-0.46091255	-0.0490332499999988	9.8262633
2026-04-18 17:54:26.836	-0.46091255	-0.0490332499999988	9.8262633
2026-04-18 17:54:27.037	-0.46091255	-0.0588398999999988	9.8262633
2026-04-18 17:54:27.092	-0.46091255	-0.0490332499999988	9.8262633
2026-04-18 17:54:27.282	-0.46091255	-0.0588398999999988	9.8262633
2026-04-18 17:54:27.339	-0.4707192	-0.0490332499999988	9.8262633
2026-04-18 17:54:27.537	-0.46091255	-0.0490332499999988	9.83606995
2026-04-18 17:54:27.591	-0.4707192	-0.0490332499999988	9.8262633
2026-04-18 17:54:27.782	-0.46091255	-0.0490332499999988	9.83606995
2026-04-18 17:54:27.839	-0.46091255	-0.0490332499999988	9.81645665
2026-04-18 17:54:28.031	-0.46091255	-0.0490332499999988	9.83606995
2026-04-18 17:54:28.092	-0.46091255	-0.0490332499999988	9.81645665
2026-04-18 17:54:28.282	-0.46091255	-0.0490332499999988	9.83606995
2026-04-18 17:54:28.346	-0.46091255	-0.0490332499999988	9.8262633
2026-04-18 17:54:28.657	-0.46091255	-0.0490332499999988	9.83606995
2026-04-18 17:54:28.661	-0.46091255	-0.0490332499999988	9.8262633
2026-04-18 17:54:28.782	-0.46091255	-0.0490332499999988	9.83606995
2026-04-18 17:54:28.842	-0.46091255	-0.0490332499999988	9.8262633
2026-04-18 17:54:29.033	-0.46091255	-0.0490332499999988	9.83606995
2026-04-18 17:54:29.092	-0.46091255	-0.0490332499999988	9.8262633
2026-04-18 17:54:29.283	-0.46091255	-0.0490332499999988	9.83606995
2026-04-18 17:54:29.347	-0.46091255	-0.0490332499999988	9.81645665
2026-04-18 17:54:29.531	-0.46091255	-0.0490332499999988	9.83606995
2026-04-18 17:54:29.593	-0.46091255	-0.0490332499999988	9.81645665
2026-04-18 17:54:29.782	-0.46091255	-0.0490332499999988	9.83606995
2026-04-18 17:54:29.839	-0.46091255	-0.0490332499999988	9.81645665
2026-04-18 17:54:30.032	-0.46091255	-0.0588398999999988	9.8262633
2026-04-18 17:54:30.093	-0.46091255	-0.0490332499999988	9.81645665
2026-04-18 17:54:30.282	-0.46091255	-0.0588398999999988	9.8262633
2026-04-18 17:54:30.337	-0.46091255	-0.0490332499999988	9.81645665
2026-04-18 17:54:30.537	-0.46091255	-0.0490332499999988	9.8262633
2026-04-18 17:54:30.592	-0.46091255	-0.0490332499999988	9.81645665
2026-04-18 17:54:30.782	-0.46091255	-0.0490332499999988	9.8262633
2026-04-18 17:54:30.837	-0.46091255	-0.0490332499999988	9.81645665
2026-04-18 17:54:31.035	-0.4707192	-0.0490332499999988	9.8262633
2026-04-18 17:54:31.093	-0.46091255	-0.0490332499999988	9.81645665
2026-04-18 17:54:31.286	-0.4707192	-0.0490332499999988	9.8262633
2026-04-18 17:54:31.339	-0.46091255	-0.0490332499999988	9.8262633
2026-04-18 17:54:31.534	-0.46091255	-0.0490332499999988	9.83606995
2026-04-18 17:54:31.592	-0.46091255	-0.0490332499999988	9.8262633
2026-04-18 17:54:31.782	-0.46091255	-0.0490332499999988	9.83606995
2026-04-18 17:54:31.840	-0.4707192	-0.0490332499999988	9.8262633
2026-04-18 17:54:32.033	-0.46091255	-0.0490332499999988	9.83606995
2026-04-18 17:54:32.094	-0.4707192	-0.0490332499999988	9.8262633
2026-04-18 17:54:32.282	-0.46091255	-0.0490332499999988	9.83606995
2026-04-18 17:54:32.344	-0.46091255	-0.0490332499999988	9.8262633
2026-04-18 17:54:32.535	-0.4707192	-0.0490332499999988	9.83606995
2026-04-18 17:54:32.592	-0.46091255	-0.0490332499999988	9.8262633
2026-04-18 17:54:32.782	-0.4707192	-0.0490332499999988	9.83606995
2026-04-18 17:54:32.837	-0.46091255	-0.0490332499999988	9.81645665
2026-04-18 17:54:33.035	-0.4707192	-0.0588398999999988	9.8262633
2026-04-18 17:54:33.092	-0.46091255	-0.0490332499999988	9.81645665
2026-04-18 17:54:33.283	-0.4707192	-0.0588398999999988	9.8262633
2026-04-18 17:54:33.348	-0.46091255	-0.0490332499999988	9.81645665
2026-04-18 17:54:33.532	-0.46091255	-0.0490332499999988	9.8262633
2026-04-18 17:54:33.591	-0.46091255	-0.0490332499999988	9.81645665
2026-04-18 17:54:33.781	-0.46091255	-0.0490332499999988	9.8262633
2026-04-18 17:54:33.840	-0.46091255	-0.0490332499999988	9.8262633
2026-04-18 17:54:34.031	-0.4707192	-0.0490332499999988	9.8262633
2026-04-18 17:54:34.093	-0.46091255	-0.0490332499999988	9.8262633
2026-04-18 17:54:34.283	-0.4707192	-0.0490332499999988	9.8262633
2026-04-18 17:54:34.343	-0.46091255	-0.0490332499999988	9.8262633
2026-04-18 17:54:34.535	-0.46091255	-0.0588398999999988	9.8262633
2026-04-18 17:54:34.592	-0.46091255	-0.0490332499999988	9.8262633
2026-04-18 17:54:34.781	-0.46091255	-0.0588398999999988	9.8262633
2026-04-18 17:54:34.840	-0.4707192	-0.0490332499999988	9.8262633
2026-04-18 17:54:35.032	-0.46091255	-0.0490332499999988	9.8262633
2026-04-18 17:54:35.092	-0.4707192	-0.0490332499999988	9.8262633
2026-04-18 17:54:35.282	-0.46091255	-0.0490332499999988	9.8262633
2026-04-18 17:54:35.347	-0.4707192	-0.0490332499999988	9.8262633
2026-04-18 17:54:35.541	-0.4707192	-0.0490332499999988	9.8262633
2026-04-18 17:54:35.593	-0.4707192	-0.0490332499999988	9.8262633
2026-04-18 17:54:35.782	-0.4707192	-0.0490332499999988	9.8262633
2026-04-18 17:54:35.840	-0.46091255	-0.0490332499999988	9.81645665
2026-04-18 17:54:36.035	-0.46091255	-0.0490332499999988	9.8262633
2026-04-18 17:54:36.093	-0.46091255	-0.0490332499999988	9.81645665
2026-04-18 17:54:36.283	-0.46091255	-0.0490332499999988	9.8262633
2026-04-18 17:54:36.339	-0.46091255	-0.0490332499999988	9.81645665
2026-04-18 17:54:36.535	-0.46091255	-0.0490332499999988	9.8262633
2026-04-18 17:54:36.591	-0.46091255	-0.0490332499999988	9.81645665
2026-04-18 17:54:36.782	-0.46091255	-0.0490332499999988	9.8262633
2026-04-18 17:54:36.843	-0.46091255	-0.0490332499999988	9.8262633
2026-04-18 17:54:37.031	-0.46091255	-0.0490332499999988	9.8262633
2026-04-18 17:54:37.093	-0.46091255	-0.0490332499999988	9.8262633
2026-04-18 17:54:37.283	-0.46091255	-0.0490332499999988	9.8262633
2026-04-18 17:54:37.339	-0.4707192	-0.0490332499999988	9.8262633
2026-04-18 17:54:37.533	-0.46091255	-0.0490332499999988	9.8262633
2026-04-18 17:54:37.592	-0.4707192	-0.0490332499999988	9.8262633
2026-04-18 17:54:37.781	-0.46091255	-0.0490332499999988	9.8262633
2026-04-18 17:54:37.840	-0.46091255	-0.0490332499999988	9.81645665
2026-04-18 17:54:38.035	-0.46091255	-0.0490332499999988	9.8262633
2026-04-18 17:54:38.094	-0.46091255	-0.0490332499999988	9.81645665
2026-04-18 17:54:38.282	-0.46091255	-0.0490332499999988	9.8262633
2026-04-18 17:54:38.342	-0.4707192	-0.0490332499999988	9.8262633
2026-04-18 17:54:38.534	-0.4707192	-0.0490332499999988	9.83606995
2026-04-18 17:54:38.593	-0.4707192	-0.0490332499999988	9.8262633
2026-04-18 17:54:38.782	-0.4707192	-0.0490332499999988	9.83606995
2026-04-18 17:54:38.847	-0.46091255	-0.0490332499999988	9.81645665
2026-04-18 17:54:39.034	-0.46091255	-0.0490332499999988	9.8262633
2026-04-18 17:54:39.092	-0.46091255	-0.0490332499999988	9.81645665
2026-04-18 17:54:39.283	-0.46091255	-0.0490332499999988	9.8262633
2026-04-18 17:54:39.338	-0.4707192	-0.0490332499999988	9.81645665
2026-04-18 17:54:39.538	-0.46091255	-0.0490332499999988	9.8262633
2026-04-18 17:54:39.591	-0.4707192	-0.0490332499999988	9.81645665
2026-04-18 17:54:39.782	-0.46091255	-0.0490332499999988	9.8262633
2026-04-18 17:54:39.838	-0.46091255	-0.0490332499999988	9.81645665
2026-04-18 17:54:40.038	-0.46091255	-0.0490332499999988	9.8262633
2026-04-18 17:54:40.094	-0.46091255	-0.0490332499999988	9.81645665
2026-04-18 17:54:40.283	-0.46091255	-0.0490332499999988	9.8262633
2026-04-18 17:54:40.339	-0.4707192	-0.0490332499999988	9.81645665
2026-04-18 17:54:40.534	-0.46091255	-0.0588398999999988	9.8262633
2026-04-18 17:54:40.592	-0.4707192	-0.0490332499999988	9.81645665
2026-04-18 17:54:40.781	-0.46091255	-0.0588398999999988	9.8262633
2026-04-18 17:54:40.837	-0.46091255	-0.0490332499999988	9.81645665
2026-04-18 17:54:41.030	-0.4707192	-0.0588398999999988	9.83606995
2026-04-18 17:54:41.093	-0.46091255	-0.0490332499999988	9.81645665
2026-04-18 17:54:41.283	-0.4707192	-0.0588398999999988	9.83606995
2026-04-18 17:54:41.342	-0.46091255	-0.0490332499999988	9.81645665
2026-04-18 17:54:41.539	-0.46091255	-0.0588398999999988	9.8262633
2026-04-18 17:54:41.593	-0.46091255	-0.0490332499999988	9.81645665
2026-04-18 17:54:41.781	-0.46091255	-0.0588398999999988	9.8262633
2026-04-18 17:54:41.839	-0.46091255	-0.0490332499999988	9.8262633
2026-04-18 17:54:42.030	-0.4707192	-0.0490332499999988	9.8262633
2026-04-18 17:54:42.092	-0.46091255	-0.0490332499999988	9.8262633
2026-04-18 17:54:42.283	-0.4707192	-0.0490332499999988	9.8262633
2026-04-18 17:54:42.342	-0.46091255	-0.0490332499999988	9.8262633
2026-04-18 17:54:42.539	-0.46091255	-0.0490332499999988	9.83606995
2026-04-18 17:54:42.592	-0.46091255	-0.0490332499999988	9.8262633
2026-04-18 17:54:42.782	-0.46091255	-0.0490332499999988	9.83606995
2026-04-18 17:54:42.840	-0.4707192	-0.0490332499999988	9.8262633
2026-04-18 17:54:43.030	-0.4707192	-0.0490332499999988	9.8262633
2026-04-18 17:54:43.092	-0.4707192	-0.0490332499999988	9.8262633
2026-04-18 17:54:43.282	-0.4707192	-0.0490332499999988	9.8262633
2026-04-18 17:54:43.342	-0.46091255	-0.0490332499999988	9.8262633
2026-04-18 17:54:43.533	-0.46091255	-0.0588398999999988	9.8262633
2026-04-18 17:54:43.593	-0.46091255	-0.0490332499999988	9.8262633
2026-04-18 17:54:43.780	-0.46091255	-0.0588398999999988	9.8262633
2026-04-18 17:54:43.841	-0.46091255	-0.0490332499999988	9.8262633
2026-04-18 17:54:44.034	-0.4707192	-0.0490332499999988	9.8262633
2026-04-18 17:54:44.093	-0.46091255	-0.0490332499999988	9.8262633
2026-04-18 17:54:44.282	-0.4707192	-0.0490332499999988	9.8262633
2026-04-18 17:54:44.345	-0.46091255	-0.0490332499999988	9.8262633
2026-04-18 17:54:44.537	-0.46091255	-0.0490332499999988	9.83606995
2026-04-18 17:54:44.593	-0.46091255	-0.0490332499999988	9.8262633
2026-04-18 17:54:44.783	-0.46091255	-0.0490332499999988	9.83606995
2026-04-18 17:54:44.839	-0.46091255	-0.0490332499999988	9.8262633
2026-04-18 17:54:45.031	-0.4707192	-0.0490332499999988	9.83606995
2026-04-18 17:54:45.094	-0.46091255	-0.0490332499999988	9.8262633
2026-04-18 17:54:45.282	-0.4707192	-0.0490332499999988	9.83606995
2026-04-18 17:54:45.340	-0.46091255	-0.0490332499999988	9.8262633
2026-04-18 17:54:45.534	-0.46091255	-0.0490332499999988	9.83606995
2026-04-18 17:54:45.592	-0.46091255	-0.0490332499999988	9.8262633
2026-04-18 17:54:45.782	-0.46091255	-0.0490332499999988	9.83606995
2026-04-18 17:54:45.837	-0.46091255	-0.0490332499999988	9.83606995
2026-04-18 17:54:46.031	-0.4707192	-0.0490332499999988	9.83606995
2026-04-18 17:54:46.092	-0.46091255	-0.0490332499999988	9.83606995
2026-04-18 17:54:46.281	-0.4707192	-0.0490332499999988	9.83606995
2026-04-18 17:54:46.340	-0.46091255	-0.0490332499999988	9.83606995
2026-04-18 17:54:46.539	-0.46091255	-0.0490332499999988	9.8262633
2026-04-18 17:54:46.592	-0.46091255	-0.0490332499999988	9.83606995
2026-04-18 17:54:46.783	-0.46091255	-0.0490332499999988	9.8262633
2026-04-18 17:54:46.838	-0.46091255	-0.0490332499999988	9.83606995
2026-04-18 17:54:47.039	-0.46091255	-0.0490332499999988	9.8262633
2026-04-18 17:54:47.091	-0.46091255	-0.0490332499999988	9.83606995
2026-04-18 17:54:47.282	-0.46091255	-0.0490332499999988	9.8262633
2026-04-18 17:54:47.342	-0.4707192	-0.0490332499999988	9.8262633
2026-04-18 17:54:47.535	-0.4707192	-0.0490332499999988	9.8262633
2026-04-18 17:54:47.591	-0.4707192	-0.0490332499999988	9.8262633
2026-04-18 17:54:47.782	-0.4707192	-0.0490332499999988	9.8262633
2026-04-18 17:54:47.838	-0.46091255	-0.0490332499999988	9.8262633
2026-04-18 17:54:48.036	-0.46091255	-0.0588398999999988	9.8262633
2026-04-18 17:54:48.092	-0.46091255	-0.0490332499999988	9.8262633
2026-04-18 17:54:48.282	-0.46091255	-0.0588398999999988	9.8262633
2026-04-18 17:54:48.343	-0.46091255	-0.0490332499999988	9.8262633
2026-04-18 17:54:48.538	-0.46091255	-0.0490332499999988	9.8262633
2026-04-18 17:54:48.592	-0.46091255	-0.0490332499999988	9.8262633
2026-04-18 17:54:48.782	-0.46091255	-0.0490332499999988	9.8262633
2026-04-18 17:54:48.841	-0.4707192	-0.0490332499999988	9.8262633
2026-04-18 17:54:49.031	-0.4707192	-0.0490332499999988	9.8262633
2026-04-18 17:54:49.092	-0.4707192	-0.0490332499999988	9.8262633
2026-04-18 17:54:49.281	-0.4707192	-0.0490332499999988	9.8262633
2026-04-18 17:54:49.343	-0.46091255	-0.0490332499999988	9.8262633
2026-04-18 17:54:49.529	-0.46091255	-0.0490332499999988	9.8262633
2026-04-18 17:54:49.593	-0.46091255	-0.0490332499999988	9.8262633
2026-04-18 17:54:49.782	-0.46091255	-0.0490332499999988	9.8262633
2026-04-18 17:54:49.844	-0.46091255	-0.0490332499999988	9.8262633
2026-04-18 17:54:50.034	-0.46091255	-0.0490332499999988	9.8262633
2026-04-18 17:54:50.092	-0.46091255	-0.0490332499999988	9.8262633
2026-04-18 17:54:50.282	-0.46091255	-0.0490332499999988	9.8262633
2026-04-18 17:54:50.345	-0.46091255	-0.0490332499999988	9.8262633
2026-04-18 17:54:50.534	-0.46091255	-0.0490332499999988	9.8262633
2026-04-18 17:54:50.592	-0.46091255	-0.0490332499999988	9.8262633
2026-04-18 17:54:50.782	-0.46091255	-0.0490332499999988	9.8262633
2026-04-18 17:54:50.839	-0.46091255	-0.0490332499999988	9.81645665
2026-04-18 17:54:51.031	-0.4707192	-0.0588398999999988	9.8262633
2026-04-18 17:54:51.092	-0.46091255	-0.0490332499999988	9.81645665
2026-04-18 17:54:51.282	-0.4707192	-0.0588398999999988	9.8262633
2026-04-18 17:54:51.341	-0.46091255	-0.0490332499999988	9.8262633
2026-04-18 17:54:51.530	-0.46091255	-0.0588398999999988	9.83606995
2026-04-18 17:54:51.593	-0.46091255	-0.0490332499999988	9.8262633
2026-04-18 17:54:51.782	-0.46091255	-0.0588398999999988	9.83606995
2026-04-18 17:54:51.840	-0.46091255	-0.0490332499999988	9.81645665
2026-04-18 17:54:52.039	-0.4707192	-0.0490332499999988	9.83606995
2026-04-18 17:54:52.092	-0.46091255	-0.0490332499999988	9.81645665
2026-04-18 17:54:52.281	-0.4707192	-0.0490332499999988	9.83606995
2026-04-18 17:54:52.347	-0.46091255	-0.0490332499999988	9.81645665
2026-04-18 17:54:52.539	-0.4707192	-0.0490332499999988	9.8262633
2026-04-18 17:54:52.593	-0.46091255	-0.0490332499999988	9.81645665
2026-04-18 17:54:52.782	-0.4707192	-0.0490332499999988	9.8262633
2026-04-18 17:54:52.838	-0.4707192	-0.0490332499999988	9.8262633
2026-04-18 17:54:53.030	-0.46091255	-0.0490332499999988	9.8262633
2026-04-18 17:54:53.092	-0.4707192	-0.0490332499999988	9.8262633
2026-04-18 17:54:53.282	-0.46091255	-0.0490332499999988	9.8262633
2026-04-18 17:54:53.342	-0.46091255	-0.0490332499999988	9.8262633
2026-04-18 17:54:53.533	-0.4707192	-0.0490332499999988	9.8262633
2026-04-18 17:54:53.592	-0.46091255	-0.0490332499999988	9.8262633
2026-04-18 17:54:53.782	-0.4707192	-0.0490332499999988	9.8262633
2026-04-18 17:54:53.838	-0.4707192	-0.0490332499999988	9.8262633
2026-04-18 17:54:54.031	-0.46091255	-0.0490332499999988	9.8262633
2026-04-18 17:54:54.092	-0.4707192	-0.0490332499999988	9.8262633
2026-04-18 17:54:54.282	-0.46091255	-0.0490332499999988	9.8262633
2026-04-18 17:54:54.342	-0.46091255	-0.0588398999999988	9.8262633
2026-04-18 17:54:54.537	-0.46091255	-0.0588398999999988	9.8262633
2026-04-18 17:54:54.593	-0.46091255	-0.0588398999999988	9.8262633
2026-04-18 17:54:54.782	-0.46091255	-0.0588398999999988	9.8262633
2026-04-18 17:54:54.841	-0.46091255	-0.0490332499999988	9.8262633
2026-04-18 17:54:55.031	-0.46091255	-0.0490332499999988	9.8262633
2026-04-18 17:54:55.092	-0.46091255	-0.0490332499999988	9.8262633
2026-04-18 17:54:55.282	-0.46091255	-0.0490332499999988	9.8262633
2026-04-18 17:54:55.346	-0.46091255	-0.0490332499999988	9.8262633
2026-04-18 17:54:55.534	-0.4707192	-0.0588398999999988	9.8262633
2026-04-18 17:54:55.592	-0.46091255	-0.0490332499999988	9.8262633
2026-04-18 17:54:55.782	-0.4707192	-0.0588398999999988	9.8262633
2026-04-18 17:54:55.840	-0.46091255	-0.0490332499999988	9.81645665
2026-04-18 17:54:56.030	-0.4707192	-0.0588398999999988	9.8262633
2026-04-18 17:54:56.090	-0.46091255	-0.0490332499999988	9.81645665
2026-04-18 17:54:56.282	-0.4707192	-0.0588398999999988	9.8262633
2026-04-18 17:54:56.341	-0.46091255	-0.0490332499999988	9.8262633
2026-04-18 17:54:56.538	-0.46091255	-0.0490332499999988	9.8262633
2026-04-18 17:54:56.591	-0.46091255	-0.0490332499999988	9.8262633
2026-04-18 17:54:56.783	-0.46091255	-0.0490332499999988	9.8262633
2026-04-18 17:54:56.840	-0.4707192	-0.0588398999999988	9.8262633
2026-04-18 17:54:57.039	-0.4707192	-0.0490332499999988	9.83606995
2026-04-18 17:54:57.279	-0.4707192	-0.0490332499999988	9.83606995
2026-04-18 17:54:57.535	-0.46091255	-0.0490332499999988	9.83606995
2026-04-18 17:54:57.782	-0.46091255	-0.0490332499999988	9.83606995
2026-04-18 17:54:58.032	-0.46091255	-0.0490332499999988	9.8262633
2026-04-18 17:54:58.282	-0.46091255	-0.0490332499999988	9.8262633
2026-04-18 17:54:58.536	-0.46091255	-0.0588398999999988	9.8262633
2026-04-18 17:54:58.781	-0.46091255	-0.0588398999999988	9.8262633
2026-04-18 17:54:59.032	-0.46091255	-0.0490332499999988	9.8262633
2026-04-18 17:54:59.282	-0.46091255	-0.0490332499999988	9.8262633
2026-04-18 17:54:59.531	-0.46091255	-0.0588398999999988	9.8262633
2026-04-18 17:54:59.781	-0.46091255	-0.0588398999999988	9.8262633
2026-04-18 17:55:00.030	-0.46091255	-0.0588398999999988	9.8262633
2026-04-18 17:55:00.282	-0.46091255	-0.0588398999999988	9.8262633
2026-04-18 17:55:00.534	-0.46091255	-0.0490332499999988	9.8262633
2026-04-18 17:55:00.781	-0.46091255	-0.0490332499999988	9.8262633
2026-04-18 17:55:01.036	-0.4707192	-0.0490332499999988	9.8262633
2026-04-18 17:55:01.282	-0.4707192	-0.0490332499999988	9.8262633
2026-04-18 17:55:01.533	-0.46091255	-0.0490332499999988	9.8262633
2026-04-18 17:55:01.782	-0.46091255	-0.0490332499999988	9.8262633
2026-04-18 17:55:02.031	-0.46091255	-0.0588398999999988	9.83606995
2026-04-18 17:55:02.282	-0.46091255	-0.0588398999999988	9.83606995
2026-04-18 17:55:02.537	-0.4707192	-0.0588398999999988	9.83606995
2026-04-18 17:55:02.781	-0.4707192	-0.0588398999999988	9.83606995
2026-04-18 17:55:03.035	-0.46091255	-0.0490332499999988	9.83606995
2026-04-18 17:55:03.282	-0.46091255	-0.0490332499999988	9.83606995
2026-04-18 17:55:03.531	-0.46091255	-0.0490332499999988	9.8262633
2026-04-18 17:55:03.781	-0.46091255	-0.0490332499999988	9.8262633
2026-04-18 17:55:04.036	-0.46091255	-0.0490332499999988	9.8262633
2026-04-18 17:55:04.282	-0.46091255	-0.0490332499999988	9.8262633
2026-04-18 17:55:04.535	-0.4707192	-0.0490332499999988	9.8262633
2026-04-18 17:55:04.781	-0.4707192	-0.0490332499999988	9.8262633
2026-04-18 17:55:05.029	-0.46091255	-0.0490332499999988	9.8262633
2026-04-18 17:55:05.282	-0.46091255	-0.0490332499999988	9.8262633
2026-04-18 17:55:05.532	-0.4707192	-0.0490332499999988	9.83606995
2026-04-18 17:55:05.779	-0.4707192	-0.0490332499999988	9.83606995
2026-04-18 17:55:06.027	-0.46091255	-0.0490332499999988	9.83606995
2026-04-18 17:55:06.280	-0.46091255	-0.0490332499999988	9.83606995
2026-04-18 17:55:06.527	-0.4707192	-0.0490332499999988	9.83606995
2026-04-18 17:55:06.778	-0.4707192	-0.0490332499999988	9.83606995
2026-04-18 17:55:07.024	-0.4707192	-0.0588398999999988	9.8262633
2026-04-18 17:55:07.279	-0.4707192	-0.0588398999999988	9.8262633
2026-04-18 17:55:07.525	-0.46091255	-0.0490332499999988	9.8262633
2026-04-18 17:55:07.779	-0.46091255	-0.0490332499999988	9.8262633
2026-04-18 17:55:08.030	-0.4707192	-0.0588398999999988	9.8262633
2026-04-18 17:55:08.284	-0.4707192	-0.0588398999999988	9.8262633
2026-04-18 17:55:08.529	-0.46091255	-0.0490332499999988	9.8262633
2026-04-18 17:55:08.782	-0.46091255	-0.0490332499999988	9.8262633
2026-04-18 17:55:09.034	-0.46091255	-0.0490332499999988	9.8262633
2026-04-18 17:55:09.283	-0.46091255	-0.0490332499999988	9.8262633
2026-04-18 17:55:09.535	-0.4707192	-0.0490332499999988	9.8262633
2026-04-18 17:55:09.781	-0.4707192	-0.0490332499999988	9.8262633
2026-04-18 17:55:10.031	-0.46091255	-0.0490332499999988	9.83606995
2026-04-18 17:55:10.282	-0.46091255	-0.0490332499999988	9.83606995
2026-04-18 17:55:10.538	-0.46091255	-0.0490332499999988	9.83606995
2026-04-18 17:55:10.782	-0.46091255	-0.0490332499999988	9.83606995
2026-04-18 17:55:11.034	-0.46091255	-0.0588398999999988	9.83606995
2026-04-18 17:55:11.282	-0.46091255	-0.0588398999999988	9.83606995
2026-04-18 17:55:11.533	-0.4707192	-0.0392265999999988	9.8262633
2026-04-18 17:55:11.782	-0.4707192	-0.0392265999999988	9.8262633
2026-04-18 17:55:12.030	-0.42168595	-0.16671304999999878	9.81645665
2026-04-18 17:55:12.282	-0.42168595	-0.16671304999999878	9.81645665
2026-04-18 17:55:12.539	-0.59820565	-0.0686465499999988	9.8458766
2026-04-18 17:55:12.782	-0.59820565	-0.0686465499999988	9.8458766
2026-04-18 17:55:13.038	-0.4511059	-0.18632634999999878	9.85568325
2026-04-18 17:55:13.282	-0.4511059	-0.18632634999999878	9.85568325
2026-04-18 17:55:13.532	-0.3334261	0.15690640000000122	9.8262633
2026-04-18 17:55:13.782	-0.3334261	0.15690640000000122	9.8262633
2026-04-18 17:55:14.030	-0.4314926	0.029419950000001163	9.5124505
2026-04-18 17:55:14.281	-0.4314926	0.029419950000001163	9.5124505
2026-04-18 17:55:14.535	-0.588399	-0.0686465499999988	9.91452315
2026-04-18 17:55:14.782	-0.588399	-0.0686465499999988	9.91452315
2026-04-18 17:55:15.029	-0.4707192	-0.0686465499999988	9.8262633
2026-04-18 17:55:15.281	-0.4707192	-0.0686465499999988	9.8262633
2026-04-18 17:55:15.532	-0.50013915	-0.0686465499999988	9.8262633
2026-04-18 17:55:15.782	-0.50013915	-0.0686465499999988	9.8262633
2026-04-18 17:55:16.037	-0.4707192	-0.03922659999999879	9.83606995
2026-04-18 17:55:16.282	-0.4707192	-0.03922659999999879	9.83606995
2026-04-18 17:55:16.537	-0.4511059	-0.0490332499999988	9.8262633
2026-04-18 17:55:16.779	-0.4511059	-0.0490332499999988	9.8262633
2026-04-18 17:55:17.031	-0.4707192	-0.0490332499999988	9.8262633
2026-04-18 17:55:17.282	-0.4707192	-0.0490332499999988	9.8262633
2026-04-18 17:55:17.531	-0.46091255	-0.0490332499999988	9.8262633
2026-04-18 17:55:17.782	-0.46091255	-0.0490332499999988	9.8262633
2026-04-18 17:55:18.032	-0.4707192	-0.0490332499999988	9.83606995
2026-04-18 17:55:18.282	-0.4707192	-0.0490332499999988	9.83606995
2026-04-18 17:55:18.539	-0.46091255	-0.0490332499999988	9.83606995
2026-04-18 17:55:18.782	-0.46091255	-0.0490332499999988	9.83606995
2026-04-18 17:55:19.036	-0.4707192	-0.0490332499999988	9.8262633
2026-04-18 17:55:19.282	-0.4707192	-0.0490332499999988	9.8262633
2026-04-18 17:55:19.535	-0.46091255	-0.0490332499999988	9.8262633
2026-04-18 17:55:19.782	-0.46091255	-0.0490332499999988	9.8262633
2026-04-18 17:55:20.030	-0.4707192	-0.0490332499999988	9.8262633
2026-04-18 17:55:20.282	-0.4707192	-0.0490332499999988	9.8262633
2026-04-18 17:55:20.537	-0.46091255	-0.0490332499999988	9.83606995
2026-04-18 17:55:20.782	-0.46091255	-0.0490332499999988	9.83606995
2026-04-18 17:55:21.033	-0.46091255	-0.0490332499999988	9.83606995
2026-04-18 17:55:21.282	-0.46091255	-0.0490332499999988	9.83606995
2026-04-18 17:55:21.531	-0.46091255	-0.0490332499999988	9.8262633
2026-04-18 17:55:21.782	-0.46091255	-0.0490332499999988	9.8262633
2026-04-18 17:55:22.037	-0.46091255	-0.0490332499999988	9.8262633
2026-04-18 17:55:22.282	-0.46091255	-0.0490332499999988	9.8262633
2026-04-18 17:55:22.536	-0.46091255	-0.0588398999999988	9.83606995
2026-04-18 17:55:22.781	-0.46091255	-0.0588398999999988	9.83606995
2026-04-18 17:55:23.030	-0.46091255	-0.0490332499999988	9.83606995
2026-04-18 17:55:23.282	-0.46091255	-0.0490332499999988	9.83606995
2026-04-18 17:55:23.535	-0.46091255	-0.0490332499999988	9.83606995
2026-04-18 17:55:23.781	-0.46091255	-0.0490332499999988	9.83606995
2026-04-18 17:55:24.030	-0.46091255	-0.0588398999999988	9.8262633
2026-04-18 17:55:24.282	-0.46091255	-0.0588398999999988	9.8262633
2026-04-18 17:55:24.536	-0.4707192	-0.0490332499999988	9.83606995
2026-04-18 17:55:24.782	-0.4707192	-0.0490332499999988	9.83606995
2026-04-18 17:55:25.031	-0.46091255	-0.0490332499999988	9.8262633
2026-04-18 17:55:25.279	-0.46091255	-0.0490332499999988	9.8262633
2026-04-18 17:55:25.524	-0.46091255	-0.0588398999999988	9.8262633
2026-04-18 17:55:25.779	-0.46091255	-0.0588398999999988	9.8262633
2026-04-18 17:55:26.025	-0.4707192	-0.0490332499999988	9.83606995
2026-04-18 17:55:26.280	-0.4707192	-0.0490332499999988	9.83606995
2026-04-18 17:55:26.540	-0.4707192	-0.0490332499999988	9.8262633
2026-04-18 17:55:26.782	-0.4707192	-0.0490332499999988	9.8262633
2026-04-18 17:55:27.025	-0.46091255	-0.0490332499999988	9.8262633
2026-04-18 17:55:27.279	-0.46091255	-0.0490332499999988	9.8262633
2026-04-18 17:55:27.526	-0.46091255	-0.0490332499999988	9.8262633
2026-04-18 17:55:27.779	-0.46091255	-0.0490332499999988	9.8262633
2026-04-18 17:55:28.030	-0.46091255	-0.0490332499999988	9.8262633
2026-04-18 17:55:28.284	-0.46091255	-0.0490332499999988	9.8262633
2026-04-18 17:55:28.539	-0.4707192	-0.0490332499999988	9.83606995
2026-04-18 17:55:28.782	-0.4707192	-0.0490332499999988	9.83606995
2026-04-18 17:55:29.035	-0.46091255	-0.0490332499999988	9.8262633
2026-04-18 17:55:29.279	-0.46091255	-0.0490332499999988	9.8262633
2026-04-18 17:55:29.539	-0.46091255	-0.0490332499999988	9.8262633
2026-04-18 17:55:29.781	-0.46091255	-0.0490332499999988	9.8262633
2026-04-18 17:55:30.036	-0.46091255	-0.0490332499999988	9.8262633
2026-04-18 17:55:30.279	-0.46091255	-0.0490332499999988	9.8262633
2026-04-18 17:55:30.524	-0.4707192	-0.0490332499999988	9.83606995
2026-04-18 17:55:30.778	-0.4707192	-0.0490332499999988	9.83606995
2026-04-18 17:55:31.029	-0.46091255	-0.0490332499999988	9.8262633
2026-04-18 17:55:31.279	-0.46091255	-0.0490332499999988	9.8262633
2026-04-18 17:55:31.535	-0.4707192	-0.0490332499999988	9.83606995
2026-04-18 17:55:31.780	-0.4707192	-0.0490332499999988	9.83606995
2026-04-18 17:55:32.040	-0.46091255	-0.0490332499999988	9.83606995
2026-04-18 17:55:32.282	-0.46091255	-0.0490332499999988	9.83606995
2026-04-18 17:55:32.537	-0.4707192	-0.0490332499999988	9.83606995
2026-04-18 17:55:32.782	-0.4707192	-0.0490332499999988	9.83606995
2026-04-18 17:55:33.031	-0.46091255	-0.0490332499999988	9.8262633
2026-04-18 17:55:33.282	-0.46091255	-0.0490332499999988	9.8262633
2026-04-18 17:55:33.534	-0.46091255	-0.0490332499999988	9.8262633
2026-04-18 17:55:33.782	-0.46091255	-0.0490332499999988	9.8262633
2026-04-18 17:55:34.032	-0.46091255	-0.0490332499999988	9.8262633
2026-04-18 17:55:34.282	-0.46091255	-0.0490332499999988	9.8262633
2026-04-18 17:55:34.538	-0.46091255	-0.0490332499999988	9.8262633
2026-04-18 17:55:34.781	-0.46091255	-0.0490332499999988	9.8262633
2026-04-18 17:55:35.033	-0.46091255	-0.0490332499999988	9.8262633
2026-04-18 17:55:35.282	-0.46091255	-0.0490332499999988	9.8262633
2026-04-18 17:55:35.532	-0.4707192	-0.0588398999999988	9.8262633
2026-04-18 17:55:35.782	-0.4707192	-0.0588398999999988	9.8262633
2026-04-18 17:55:36.037	-0.46091255	-0.0490332499999988	9.8262633
2026-04-18 17:55:36.282	-0.46091255	-0.0490332499999988	9.8262633
2026-04-18 17:55:36.539	-0.46091255	-0.0490332499999988	9.8262633
2026-04-18 17:55:36.782	-0.46091255	-0.0490332499999988	9.8262633
2026-04-18 17:55:37.025	-0.46091255	-0.0490332499999988	9.8262633
2026-04-18 17:55:37.278	-0.46091255	-0.0490332499999988	9.8262633
2026-04-18 17:55:37.523	-0.4707192	-0.0490332499999988	9.8262633
2026-04-18 17:55:37.778	-0.4707192	-0.0490332499999988	9.8262633
2026-04-18 17:55:38.025	-0.46091255	-0.0490332499999988	9.8262633
2026-04-18 17:55:38.279	-0.46091255	-0.0490332499999988	9.8262633
2026-04-18 17:55:38.526	-0.4707192	-0.0490332499999988	9.83606995
2026-04-18 17:55:38.779	-0.4707192	-0.0490332499999988	9.83606995
2026-04-18 17:55:39.024	-0.4707192	-0.0490332499999988	9.83606995
2026-04-18 17:55:39.279	-0.4707192	-0.0490332499999988	9.83606995
2026-04-18 17:55:39.529	-0.46091255	-0.0490332499999988	9.83606995
2026-04-18 17:55:39.779	-0.46091255	-0.0490332499999988	9.83606995
2026-04-18 17:55:40.026	-0.4707192	-0.0490332499999988	9.8262633
2026-04-18 17:55:40.279	-0.4707192	-0.0490332499999988	9.8262633
2026-04-18 17:55:40.526	-0.46091255	-0.0490332499999988	9.8262633
2026-04-18 17:55:40.780	-0.46091255	-0.0490332499999988	9.8262633
2026-04-18 17:55:41.040	-0.4707192	-0.0490332499999988	9.8262633
2026-04-18 17:55:41.282	-0.4707192	-0.0490332499999988	9.8262633
2026-04-18 17:55:41.538	-0.46091255	-0.0490332499999988	9.8262633
2026-04-18 17:55:41.780	-0.46091255	-0.0490332499999988	9.8262633
2026-04-18 17:55:42.024	-0.46091255	-0.0490332499999988	9.8262633
2026-04-18 17:55:42.282	-0.46091255	-0.0490332499999988	9.8262633
2026-04-18 17:55:42.539	-0.4707192	-0.0490332499999988	9.8262633
2026-04-18 17:55:42.782	-0.4707192	-0.0490332499999988	9.8262633
2026-04-18 17:55:43.033	-0.46091255	-0.0490332499999988	9.8262633
2026-04-18 17:55:43.282	-0.46091255	-0.0490332499999988	9.8262633
2026-04-18 17:55:43.521	-0.46091255	-0.0490332499999988	9.8262633
2026-04-18 17:55:43.778	-0.46091255	-0.0490332499999988	9.8262633
2026-04-18 17:55:44.403	-0.4707192	-0.0490332499999988	9.8262633
2026-04-18 17:55:44.405	-0.4707192	-0.0490332499999988	9.8262633
2026-04-18 17:55:44.540	-0.4707192	-0.0490332499999988	9.8262633
2026-04-18 17:55:44.782	-0.4707192	-0.0490332499999988	9.8262633
2026-04-18 17:55:45.032	-0.46091255	-0.0490332499999988	9.8262633
2026-04-18 17:55:45.282	-0.46091255	-0.0490332499999988	9.8262633
2026-04-18 17:55:45.536	-0.4707192	-0.0490332499999988	9.83606995
2026-04-18 17:55:45.782	-0.4707192	-0.0490332499999988	9.83606995
2026-04-18 17:55:46.031	-0.46091255	-0.0490332499999988	9.8262633
2026-04-18 17:55:46.282	-0.46091255	-0.0490332499999988	9.8262633
2026-04-18 17:55:46.526	-0.46091255	-0.0490332499999988	9.83606995
2026-04-18 17:55:46.778	-0.46091255	-0.0490332499999988	9.83606995
2026-04-18 17:55:47.023	-0.4707192	-0.0588398999999988	9.83606995
2026-04-18 17:55:47.279	-0.4707192	-0.0588398999999988	9.83606995
2026-04-18 17:55:47.525	-0.4707192	-0.0490332499999988	9.83606995
2026-04-18 17:55:47.780	-0.4707192	-0.0490332499999988	9.83606995
2026-04-18 17:55:48.028	-0.46091255	-0.0490332499999988	9.83606995
2026-04-18 17:55:48.283	-0.46091255	-0.0490332499999988	9.83606995
2026-04-18 17:55:48.536	-0.46091255	-0.0490332499999988	9.83606995
2026-04-18 17:55:48.782	-0.46091255	-0.0490332499999988	9.83606995
2026-04-18 17:55:49.046	-0.46091255	-0.0490332499999988	9.83606995
2026-04-18 17:55:49.282	-0.46091255	-0.0490332499999988	9.83606995
2026-04-18 17:55:49.544	-0.46091255	-0.0490332499999988	9.8262633
2026-04-18 17:55:49.785	-0.46091255	-0.0490332499999988	9.8262633
2026-04-18 17:55:50.035	-0.4707192	-0.0588398999999988	9.8262633
2026-04-18 17:55:50.282	-0.4707192	-0.0588398999999988	9.8262633
2026-04-18 17:55:50.537	-0.46091255	-0.0490332499999988	9.83606995
2026-04-18 17:55:50.781	-0.46091255	-0.0490332499999988	9.83606995
2026-04-18 17:55:51.033	-0.4707192	-0.0490332499999988	9.8262633
2026-04-18 17:55:51.282	-0.4707192	-0.0490332499999988	9.8262633
2026-04-18 17:55:51.534	-0.46091255	-0.0490332499999988	9.8262633
2026-04-18 17:55:51.782	-0.46091255	-0.0490332499999988	9.8262633
2026-04-18 17:55:52.032	-0.4707192	-0.0490332499999988	9.83606995
2026-04-18 17:55:52.282	-0.4707192	-0.0490332499999988	9.83606995
2026-04-18 17:55:52.540	-0.46091255	-0.0490332499999988	9.83606995
2026-04-18 17:55:52.781	-0.46091255	-0.0490332499999988	9.83606995
2026-04-18 17:55:53.032	-0.46091255	-0.0490332499999988	9.83606995
2026-04-18 17:55:53.282	-0.46091255	-0.0490332499999988	9.83606995
2026-04-18 17:55:53.537	-0.46091255	-0.0490332499999988	9.83606995
2026-04-18 17:55:53.781	-0.46091255	-0.0490332499999988	9.83606995
2026-04-18 17:55:54.079	-0.46091255	-0.0490332499999988	9.8262633
2026-04-18 17:55:54.282	-0.46091255	-0.0490332499999988	9.8262633
2026-04-18 17:55:54.537	-0.46091255	-0.0588398999999988	9.83606995
2026-04-18 17:55:54.781	-0.46091255	-0.0588398999999988	9.83606995
2026-04-18 17:55:55.039	-0.4707192	-0.0490332499999988	9.8262633
2026-04-18 17:55:55.282	-0.4707192	-0.0490332499999988	9.8262633
2026-04-18 17:55:55.539	-0.46091255	-0.0588398999999988	9.8262633
2026-04-18 17:55:55.783	-0.46091255	-0.0588398999999988	9.8262633
2026-04-18 17:55:56.035	-0.4707192	-0.0490332499999988	9.8262633
2026-04-18 17:55:56.282	-0.4707192	-0.0490332499999988	9.8262633
2026-04-18 17:55:56.536	-0.46091255	-0.0490332499999988	9.8262633
2026-04-18 17:55:56.788	-0.46091255	-0.0490332499999988	9.8262633
2026-04-18 17:55:57.024	-0.46091255	-0.0490332499999988	9.8262633
2026-04-18 17:55:57.282	-0.46091255	-0.0490332499999988	9.8262633
2026-04-18 17:55:57.533	-0.4707192	-0.0490332499999988	9.8262633
2026-04-18 17:55:57.781	-0.4707192	-0.0490332499999988	9.8262633
2026-04-18 17:55:58.040	-0.4707192	-0.0490332499999988	9.8262633
2026-04-18 17:55:58.282	-0.4707192	-0.0490332499999988	9.8262633
2026-04-18 17:55:58.539	-0.4707192	-0.0490332499999988	9.83606995
2026-04-18 17:55:58.781	-0.4707192	-0.0490332499999988	9.83606995
2026-04-18 17:55:59.034	-0.46091255	-0.0490332499999988	9.8262633
2026-04-18 17:55:59.281	-0.46091255	-0.0490332499999988	9.8262633
2026-04-18 17:55:59.538	-0.4707192	-0.0490332499999988	9.8262633
2026-04-18 17:55:59.778	-0.4707192	-0.0490332499999988	9.8262633
2026-04-18 17:56:00.025	-0.46091255	-0.0490332499999988	9.83606995
2026-04-18 17:56:00.278	-0.46091255	-0.0490332499999988	9.83606995
2026-04-18 17:56:00.525	-0.4707192	-0.0490332499999988	9.83606995
2026-04-18 17:56:00.778	-0.4707192	-0.0490332499999988	9.83606995
2026-04-18 17:56:01.036	-0.4707192	-0.0490332499999988	9.83606995
2026-04-18 17:56:01.282	-0.4707192	-0.0490332499999988	9.83606995
2026-04-18 17:56:01.537	-0.4707192	-0.0490332499999988	9.8262633
2026-04-18 17:56:01.781	-0.4707192	-0.0490332499999988	9.8262633
2026-04-18 17:56:02.037	-0.4707192	-0.0490332499999988	9.83606995
2026-04-18 17:56:02.281	-0.4707192	-0.0490332499999988	9.83606995
2026-04-18 17:56:02.541	-0.4707192	-0.0490332499999988	9.83606995
2026-04-18 17:56:02.782	-0.4707192	-0.0490332499999988	9.83606995
2026-04-18 17:56:03.034	-0.4707192	-0.0490332499999988	9.83606995
2026-04-18 17:56:03.281	-0.4707192	-0.0490332499999988	9.83606995
2026-04-18 17:56:03.536	-0.4707192	-0.0490332499999988	9.8262633
2026-04-18 17:56:03.782	-0.4707192	-0.0490332499999988	9.8262633
2026-04-18 17:56:04.039	-0.4707192	-0.0490332499999988	9.83606995
2026-04-18 17:56:04.281	-0.4707192	-0.0490332499999988	9.83606995
2026-04-18 17:56:04.537	-0.4707192	-0.0490332499999988	9.83606995
2026-04-18 17:56:04.782	-0.4707192	-0.0490332499999988	9.83606995
2026-04-18 17:56:05.031	-0.46091255	-0.0490332499999988	9.8262633
2026-04-18 17:56:05.281	-0.46091255	-0.0490332499999988	9.8262633
2026-04-18 17:56:05.532	-0.46091255	-0.0588398999999988	9.83606995
2026-04-18 17:56:05.782	-0.46091255	-0.0588398999999988	9.83606995
2026-04-18 17:56:06.033	-0.4707192	-0.0490332499999988	9.83606995
2026-04-18 17:56:06.281	-0.4707192	-0.0490332499999988	9.83606995
2026-04-18 17:56:06.541	-0.4707192	-0.0490332499999988	9.8262633
2026-04-18 17:56:06.782	-0.4707192	-0.0490332499999988	9.8262633
2026-04-18 17:56:07.034	-0.46091255	-0.0588398999999988	9.8262633
2026-04-18 17:56:07.281	-0.46091255	-0.0588398999999988	9.8262633
2026-04-18 17:56:07.654	-0.46091255	-0.0490332499999988	9.8262633
2026-04-18 17:56:07.782	-0.46091255	-0.0490332499999988	9.8262633
2026-04-18 17:56:08.041	-0.46091255	-0.0490332499999988	9.8262633
2026-04-18 17:56:08.282	-0.46091255	-0.0490332499999988	9.8262633
2026-04-18 17:56:08.538	-0.46091255	-0.0490332499999988	9.8262633
2026-04-18 17:56:08.782	-0.46091255	-0.0490332499999988	9.8262633
2026-04-18 17:56:09.036	-0.46091255	-0.0490332499999988	9.8262633
2026-04-18 17:56:09.281	-0.46091255	-0.0490332499999988	9.8262633
2026-04-18 17:56:09.536	-0.4707192	-0.0490332499999988	9.8262633
2026-04-18 17:56:09.781	-0.4707192	-0.0490332499999988	9.8262633
2026-04-18 17:56:10.034	-0.4707192	-0.0490332499999988	9.8262633
2026-04-18 17:56:10.282	-0.4707192	-0.0490332499999988	9.8262633
2026-04-18 17:56:10.536	-0.4707192	-0.0490332499999988	9.83606995
2026-04-18 17:56:10.781	-0.4707192	-0.0490332499999988	9.83606995
2026-04-18 17:56:11.033	-0.46091255	-0.0490332499999988	9.83606995
2026-04-18 17:56:11.281	-0.46091255	-0.0490332499999988	9.83606995
2026-04-18 17:56:11.536	-0.46091255	-0.0490332499999988	9.83606995
2026-04-18 17:56:11.781	-0.46091255	-0.0490332499999988	9.83606995
2026-04-18 17:56:12.032	-0.4707192	-0.0490332499999988	9.8262633
2026-04-18 17:56:12.282	-0.4707192	-0.0490332499999988	9.8262633
2026-04-18 17:56:12.540	-0.46091255	-0.0490332499999988	9.8262633
2026-04-18 17:56:12.781	-0.46091255	-0.0490332499999988	9.8262633
2026-04-18 17:56:13.036	-0.48052585000000003	-0.0490332499999988	9.8262633
2026-04-18 17:56:13.282	-0.48052585000000003	-0.0490332499999988	9.8262633
2026-04-18 17:56:13.541	-0.46091255	-0.0490332499999988	9.81645665
2026-04-18 17:56:13.781	-0.46091255	-0.0490332499999988	9.81645665
2026-04-18 17:56:14.033	-0.4903325	-0.0490332499999988	9.8262633
2026-04-18 17:56:14.282	-0.4903325	-0.0490332499999988	9.8262633
2026-04-18 17:56:14.540	-0.4707192	-0.0392265999999988	9.8262633
2026-04-18 17:56:14.782	-0.4707192	-0.0392265999999988	9.8262633
2026-04-18 17:56:15.033	-0.42168595	-0.0882598499999988	9.81645665
2026-04-18 17:56:15.282	-0.42168595	-0.0882598499999988	9.81645665
2026-04-18 17:56:15.536	-0.5295591	-0.03922659999999879	9.83606995
2026-04-18 17:56:15.782	-0.5295591	-0.03922659999999879	9.83606995
2026-04-18 17:56:16.037	-0.6472389000000001	-0.11767979999999878	9.9831697
2026-04-18 17:56:16.282	-0.6472389000000001	-0.11767979999999878	9.9831697
2026-04-18 17:56:16.538	0.1569064	0.5883990000000012	10.1204628
2026-04-18 17:56:16.781	0.1569064	0.5883990000000012	10.1204628
2026-04-18 17:56:17.041	0.4707192	1.1375714000000012	9.3163175
2026-04-18 17:56:17.282	0.4707192	1.1375714000000012	9.3163175
2026-04-18 17:56:17.758	0.7453054	2.284949450000001	8.46313895
2026-04-18 17:56:17.780	0.7453054	2.284949450000001	8.46313895
2026-04-18 17:56:18.040	1.48080415	2.3535960000000014	9.18883105
2026-04-18 17:56:18.282	1.48080415	2.3535960000000014	9.18883105
2026-04-18 17:56:18.542	2.04958985	2.098623100000001	9.3751574
2026-04-18 17:56:18.781	2.04958985	2.098623100000001	9.3751574
2026-04-18 17:56:19.030	0.6668522	4.932744950000001	8.482752249999999
2026-04-18 17:56:19.282	0.6668522	4.932744950000001	8.482752249999999
2026-04-18 17:56:19.537	-0.8433719	4.648352100000001	8.590625399999999
2026-04-18 17:56:19.782	-0.8433719	4.648352100000001	8.590625399999999
2026-04-18 17:56:20.037	0.6668522	3.1871612500000013	8.5317855
2026-04-18 17:56:20.282	0.6668522	3.1871612500000013	8.5317855
2026-04-18 17:56:20.536	-0.8041453000000001	3.373487600000001	8.20816605
2026-04-18 17:56:20.781	-0.8041453000000001	3.373487600000001	8.20816605
2026-04-18 17:56:21.039	-0.2941995	6.413549100000001	9.7281968
2026-04-18 17:56:21.283	-0.2941995	6.413549100000001	9.7281968
2026-04-18 17:56:21.536	-0.7453054	4.010919850000001	10.9246081
2026-04-18 17:56:21.781	-0.7453054	4.010919850000001	10.9246081
2026-04-18 17:56:22.035	-0.16671305	4.079566400000001	9.6497436
2026-04-18 17:56:22.282	-0.16671305	4.079566400000001	9.6497436
2026-04-18 17:56:22.538	1.48080415	5.050424750000001	9.0809579
2026-04-18 17:56:22.781	1.48080415	5.050424750000001	9.0809579
2026-04-18 17:56:23.031	-1.5102241	-1.441577549999999	9.87529655
2026-04-18 17:56:23.282	-1.5102241	-1.441577549999999	9.87529655
2026-04-18 17:56:23.534	0.00980665	-1.2944777999999988	9.5320638
2026-04-18 17:56:23.781	0.00980665	-1.2944777999999988	9.5320638
2026-04-18 17:56:24.035	0.0196133	0.12748645000000125	10.2577559
2026-04-18 17:56:24.282	0.0196133	0.12748645000000125	10.2577559
2026-04-18 17:56:24.537	0.32361945000000003	0.7453054000000012	9.7674234
2026-04-18 17:56:24.781	0.32361945000000003	0.7453054000000012	9.7674234
2026-04-18 17:56:25.032	-0.1569064	-0.18632634999999878	9.8851032
2026-04-18 17:56:25.281	-0.1569064	-0.18632634999999878	9.8851032
2026-04-18 17:56:25.535	-0.53936575	-0.2745861999999987	10.1204628
2026-04-18 17:56:25.783	-0.53936575	-0.2745861999999987	10.1204628
2026-04-18 17:56:26.033	-0.32361945000000003	-0.1372930999999988	9.8262633
2026-04-18 17:56:26.281	-0.32361945000000003	-0.1372930999999988	9.8262633
2026-04-18 17:56:26.539	-0.34323275	-0.16671304999999878	9.8262633
2026-04-18 17:56:26.782	-0.34323275	-0.16671304999999878	9.8262633
2026-04-18 17:56:27.035	-0.34323275	-0.1569063999999988	9.8262633
2026-04-18 17:56:27.282	-0.34323275	-0.1569063999999988	9.8262633
2026-04-18 17:56:27.549	-0.3530394	-0.1569063999999988	9.8262633
2026-04-18 17:56:27.781	-0.3530394	-0.1569063999999988	9.8262633
2026-04-18 17:56:28.030	-0.34323275	-0.1569063999999988	9.83606995
2026-04-18 17:56:28.282	-0.34323275	-0.1569063999999988	9.83606995
