timestamp,acc_x,acc_y,acc_z
2026-05-02 08:50:18.609,-0.16671305,-0.0882598499999988,9.8458766
2026-05-02 08:50:18.846,-0.16671305,-0.0882598499999988,9.8458766
2026-05-02 08:50:19.100,-0.16671305,-0.0882598499999988,9.8458766
2026-05-02 08:50:19.355,-0.1569064,-0.0882598499999988,9.8458766
2026-05-02 08:50:19.599,-0.1569064,-0.0882598499999988,9.8458766
2026-05-02 08:50:19.852,-0.16671305,-0.0980664999999988,9.83606995
2026-05-02 08:50:20.098,-0.16671305,-0.0980664999999988,9.83606995
2026-05-02 08:50:20.356,-0.1569064,-0.0784531999999988,9.83606995
2026-05-02 08:50:20.600,-0.1569064,-0.0784531999999988,9.83606995
2026-05-02 08:50:20.850,-0.16671305,-0.0882598499999988,9.8458766
2026-05-02 08:50:21.098,-0.16671305,-0.0882598499999988,9.8458766
2026-05-02 08:50:21.359,-0.16671305,-0.0882598499999988,9.85568325
2026-05-02 08:50:21.600,-0.16671305,-0.0882598499999988,9.85568325
2026-05-02 08:50:21.848,-0.16671305,-0.1078731499999988,9.8458766
2026-05-02 08:50:22.099,-0.16671305,-0.1078731499999988,9.8458766
2026-05-02 08:50:22.352,-0.1765197,-0.0882598499999988,9.8458766
2026-05-02 08:50:22.600,-0.1765197,-0.0882598499999988,9.8458766
2026-05-02 08:50:22.855,-0.1569064,-0.0882598499999988,9.83606995
2026-05-02 08:50:23.099,-0.1569064,-0.0882598499999988,9.83606995
2026-05-02 08:50:23.348,-0.16671305,-0.0980664999999988,9.8458766
2026-05-02 08:50:23.599,-0.16671305,-0.0980664999999988,9.8458766
2026-05-02 08:50:23.848,-0.16671305,-0.0882598499999988,9.8458766
2026-05-02 08:50:24.096,-0.16671305,-0.0882598499999988,9.8458766
2026-05-02 08:50:24.360,-0.16671305,-0.0882598499999988,9.8458766
2026-05-02 08:50:24.598,-0.16671305,-0.0882598499999988,9.8458766
2026-05-02 08:50:24.846,-0.1569064,-0.0980664999999988,9.83606995
2026-05-02 08:50:25.096,-0.1569064,-0.0980664999999988,9.83606995
2026-05-02 08:50:25.359,-0.16671305,-0.0882598499999988,9.83606995
2026-05-02 08:50:25.598,-0.16671305,-0.0882598499999988,9.83606995
2026-05-02 08:50:25.853,-0.1569064,-0.0980664999999988,9.83606995
2026-05-02 08:50:26.097,-0.1569064,-0.0980664999999988,9.83606995
2026-05-02 08:50:26.352,-0.16671305,-0.0980664999999988,9.83606995
2026-05-02 08:50:26.601,-0.16671305,-0.0980664999999988,9.83606995
2026-05-02 08:50:26.850,-0.16671305,-0.0882598499999988,9.83606995
2026-05-02 08:50:27.100,-0.16671305,-0.0882598499999988,9.83606995
2026-05-02 08:50:27.363,-0.16671305,-0.0980664999999988,9.83606995
2026-05-02 08:50:27.596,-0.16671305,-0.0980664999999988,9.83606995
2026-05-02 08:50:27.859,-0.16671305,-0.0882598499999988,9.83606995
2026-05-02 08:50:28.098,-0.16671305,-0.0882598499999988,9.83606995
2026-05-02 08:50:28.342,-0.1569064,-0.0784531999999988,9.8458766
2026-05-02 08:50:28.598,-0.1569064,-0.0784531999999988,9.8458766
2026-05-02 08:50:28.847,-0.16671305,-0.0980664999999988,9.8458766
2026-05-02 08:50:29.099,-0.16671305,-0.0980664999999988,9.8458766
2026-05-02 08:50:29.357,-0.16671305,-0.0882598499999988,9.83606995
2026-05-02 08:50:29.596,-0.16671305,-0.0882598499999988,9.83606995
2026-05-02 08:50:29.860,-0.16671305,-0.0882598499999988,9.83606995
2026-05-02 08:50:30.097,-0.16671305,-0.0882598499999988,9.83606995
2026-05-02 08:50:30.360,-0.1569064,-0.0980664999999988,9.83606995
2026-05-02 08:50:30.599,-0.1569064,-0.0980664999999988,9.83606995
2026-05-02 08:50:30.849,-0.16671305,-0.0784531999999988,9.8458766
2026-05-02 08:50:31.098,-0.16671305,-0.0784531999999988,9.8458766
2026-05-02 08:50:31.355,-0.1569064,-0.0980664999999988,9.8458766
2026-05-02 08:50:31.598,-0.1569064,-0.0980664999999988,9.8458766
2026-05-02 08:50:31.850,-0.16671305,-0.0784531999999988,9.8458766
2026-05-02 08:50:32.098,-0.16671305,-0.0784531999999988,9.8458766
2026-05-02 08:50:32.359,-0.1569064,-0.0882598499999988,9.83606995
2026-05-02 08:50:32.598,-0.1569064,-0.0882598499999988,9.83606995
2026-05-02 08:50:32.867,-0.1569064,-0.0882598499999988,9.83606995
2026-05-02 08:50:33.097,-0.1569064,-0.0882598499999988,9.83606995
2026-05-02 08:50:33.351,-0.16671305,-0.0882598499999988,9.8458766
2026-05-02 08:50:33.598,-0.16671305,-0.0882598499999988,9.8458766
2026-05-02 08:50:33.854,-0.16671305,-0.0882598499999988,9.85568325
2026-05-02 08:50:34.099,-0.16671305,-0.0882598499999988,9.85568325
2026-05-02 08:50:34.356,-0.1569064,-0.0980664999999988,9.83606995
2026-05-02 08:50:34.599,-0.1569064,-0.0980664999999988,9.83606995
2026-05-02 08:50:34.853,-0.16671305,-0.0882598499999988,9.83606995
2026-05-02 08:50:35.096,-0.16671305,-0.0882598499999988,9.83606995
2026-05-02 08:50:35.360,-0.16671305,-0.0882598499999988,9.8458766
2026-05-02 08:50:35.599,-0.16671305,-0.0882598499999988,9.8458766
2026-05-02 08:50:35.848,-0.1569064,-0.0980664999999988,9.8458766
2026-05-02 08:50:36.098,-0.1569064,-0.0980664999999988,9.8458766
2026-05-02 08:50:36.344,-0.16671305,-0.0882598499999988,9.8458766
2026-05-02 08:50:36.599,-0.16671305,-0.0882598499999988,9.8458766
2026-05-02 08:50:36.847,-0.16671305,-0.0882598499999988,9.83606995
2026-05-02 08:50:37.098,-0.16671305,-0.0882598499999988,9.83606995
2026-05-02 08:50:37.355,-0.16671305,-0.0980664999999988,9.8458766
2026-05-02 08:50:37.599,-0.16671305,-0.0980664999999988,9.8458766
2026-05-02 08:50:37.848,-0.16671305,-0.0882598499999988,9.8458766
2026-05-02 08:50:38.098,-0.16671305,-0.0882598499999988,9.8458766
2026-05-02 08:50:38.344,-0.16671305,-0.0882598499999988,9.83606995
2026-05-02 08:50:38.599,-0.16671305,-0.0882598499999988,9.83606995
2026-05-02 08:50:38.848,-0.16671305,-0.0882598499999988,9.83606995
2026-05-02 08:50:39.096,-0.16671305,-0.0882598499999988,9.83606995
2026-05-02 08:50:39.352,-0.16671305,-0.0882598499999988,9.83606995
2026-05-02 08:50:39.600,-0.16671305,-0.0882598499999988,9.83606995
2026-05-02 08:50:39.854,-0.16671305,-0.0784531999999988,9.83606995
2026-05-02 08:50:40.096,-0.16671305,-0.0784531999999988,9.83606995
2026-05-02 08:50:40.354,-0.1569064,-0.0980664999999988,9.8262633
2026-05-02 08:50:40.599,-0.1569064,-0.0980664999999988,9.8262633
2026-05-02 08:50:40.850,-0.16671305,-0.0882598499999988,9.83606995
2026-05-02 08:50:41.098,-0.16671305,-0.0882598499999988,9.83606995
2026-05-02 08:50:41.360,-0.16671305,-0.0980664999999988,9.8458766
2026-05-02 08:50:41.601,-0.16671305,-0.0980664999999988,9.8458766
2026-05-02 08:50:41.852,-0.1569064,-0.0882598499999988,9.8458766
2026-05-02 08:50:42.097,-0.1569064,-0.0882598499999988,9.8458766
2026-05-02 08:50:42.359,-0.1569064,-0.0882598499999988,9.83606995
2026-05-02 08:50:42.599,-0.1569064,-0.0882598499999988,9.83606995
2026-05-02 08:50:42.848,-0.16671305,-0.0980664999999988,9.8458766
2026-05-02 08:50:43.098,-0.16671305,-0.0980664999999988,9.8458766
2026-05-02 08:50:43.346,-0.1569064,-0.0882598499999988,9.83606995
2026-05-02 08:50:43.599,-0.1569064,-0.0882598499999988,9.83606995
2026-05-02 08:50:43.851,-0.16671305,-0.0882598499999988,9.85568325
2026-05-02 08:50:44.096,-0.16671305,-0.0882598499999988,9.85568325
2026-05-02 08:50:44.364,-0.1569064,-0.1078731499999988,9.8458766
2026-05-02 08:50:44.599,-0.1569064,-0.1078731499999988,9.8458766
2026-05-02 08:50:44.851,-0.16671305,-0.0882598499999988,9.83606995
2026-05-02 08:50:45.096,-0.16671305,-0.0882598499999988,9.83606995
2026-05-02 08:50:45.359,-0.1569064,-0.0784531999999988,9.83606995
2026-05-02 08:50:45.596,-0.1569064,-0.0784531999999988,9.83606995
2026-05-02 08:50:45.850,-0.16671305,-0.0980664999999988,9.8458766
2026-05-02 08:50:46.099,-0.16671305,-0.0980664999999988,9.8458766
2026-05-02 08:50:46.363,-0.16671305,-0.0784531999999988,9.8458766
2026-05-02 08:50:46.601,-0.16671305,-0.0784531999999988,9.8458766
2026-05-02 08:50:46.859,-0.16671305,-0.0882598499999988,9.8458766
2026-05-02 08:50:47.098,-0.16671305,-0.0882598499999988,9.8458766
2026-05-02 08:50:47.358,-0.1569064,-0.0980664999999988,9.8262633
2026-05-02 08:50:47.599,-0.1569064,-0.0980664999999988,9.8262633
2026-05-02 08:50:47.848,-0.16671305,-0.0784531999999988,9.8262633
2026-05-02 08:50:48.097,-0.16671305,-0.0784531999999988,9.8262633
2026-05-02 08:50:48.348,-0.1569064,-0.0980664999999988,9.83606995
2026-05-02 08:50:48.601,-0.1569064,-0.0980664999999988,9.83606995
2026-05-02 08:50:48.849,-0.16671305,-0.0882598499999988,9.83606995
2026-05-02 08:50:49.096,-0.16671305,-0.0882598499999988,9.83606995
2026-05-02 08:50:49.360,-0.16671305,-0.0882598499999988,9.8458766
2026-05-02 08:50:49.598,-0.16671305,-0.0882598499999988,9.8458766
2026-05-02 08:50:49.853,-0.16671305,-0.0882598499999988,9.8458766
2026-05-02 08:50:50.095,-0.16671305,-0.0882598499999988,9.8458766
2026-05-02 08:50:50.355,-0.1569064,-0.0980664999999988,9.8458766
2026-05-02 08:50:50.598,-0.1569064,-0.0980664999999988,9.8458766
2026-05-02 08:50:50.850,-0.16671305,-0.0882598499999988,9.8458766
2026-05-02 08:50:51.097,-0.16671305,-0.0882598499999988,9.8458766
2026-05-02 08:50:51.354,-0.1569064,-0.0980664999999988,9.8458766
2026-05-02 08:50:51.598,-0.1569064,-0.0980664999999988,9.8458766
2026-05-02 08:50:51.846,-0.16671305,-0.0882598499999988,9.8458766
2026-05-02 08:50:52.097,-0.16671305,-0.0882598499999988,9.8458766
2026-05-02 08:50:52.359,-0.1569064,-0.0882598499999988,9.8458766
2026-05-02 08:50:52.601,-0.1569064,-0.0882598499999988,9.8458766
2026-05-02 08:50:52.854,-0.16671305,-0.0980664999999988,9.83606995
2026-05-02 08:50:53.097,-0.16671305,-0.0980664999999988,9.83606995
2026-05-02 08:50:53.344,-0.16671305,-0.0882598499999988,9.83606995
2026-05-02 08:50:53.598,-0.16671305,-0.0882598499999988,9.83606995
2026-05-02 08:50:53.848,-0.16671305,-0.0882598499999988,9.8458766
2026-05-02 08:50:54.099,-0.16671305,-0.0882598499999988,9.8458766
2026-05-02 08:50:54.359,-0.1569064,-0.0882598499999988,9.83606995
2026-05-02 08:50:54.599,-0.1569064,-0.0882598499999988,9.83606995
2026-05-02 08:50:54.853,-0.16671305,-0.0882598499999988,9.8458766
2026-05-02 08:50:55.096,-0.16671305,-0.0882598499999988,9.8458766
2026-05-02 08:50:55.362,-0.16671305,-0.0980664999999988,9.8458766
2026-05-02 08:50:55.598,-0.16671305,-0.0980664999999988,9.8458766
2026-05-02 08:50:55.848,-0.1569064,-0.0784531999999988,9.8458766
2026-05-02 08:50:56.097,-0.1569064,-0.0784531999999988,9.8458766
2026-05-02 08:50:56.355,-0.16671305,-0.0882598499999988,9.8458766
2026-05-02 08:50:56.598,-0.16671305,-0.0882598499999988,9.8458766
2026-05-02 08:50:56.849,-0.1569064,-0.0980664999999988,9.8458766
2026-05-02 08:50:57.097,-0.1569064,-0.0980664999999988,9.8458766
2026-05-02 08:50:57.356,-0.1569064,-0.0784531999999988,9.8458766
2026-05-02 08:50:57.598,-0.1569064,-0.0784531999999988,9.8458766
2026-05-02 08:50:57.845,-0.16671305,-0.0980664999999988,9.85568325
2026-05-02 08:50:58.097,-0.16671305,-0.0980664999999988,9.85568325
2026-05-02 08:50:58.350,-0.16671305,-0.0882598499999988,9.8458766
2026-05-02 08:50:58.598,-0.16671305,-0.0882598499999988,9.8458766
2026-05-02 08:50:58.846,-0.16671305,-0.0980664999999988,9.83606995
2026-05-02 08:50:59.095,-0.16671305,-0.0980664999999988,9.83606995
2026-05-02 08:50:59.361,-0.16671305,-0.0980664999999988,9.8458766
2026-05-02 08:50:59.598,-0.16671305,-0.0980664999999988,9.8458766
2026-05-02 08:50:59.847,-0.16671305,-0.0980664999999988,9.83606995
2026-05-02 08:51:00.097,-0.16671305,-0.0980664999999988,9.83606995
2026-05-02 08:51:00.359,-0.1569064,-0.0980664999999988,9.83606995
2026-05-02 08:51:00.598,-0.1569064,-0.0980664999999988,9.83606995
2026-05-02 08:51:00.845,-0.1569064,-0.0882598499999988,9.83606995
2026-05-02 08:51:01.099,-0.1569064,-0.0882598499999988,9.83606995
2026-05-02 08:51:01.357,-0.1569064,-0.0980664999999988,9.8458766
2026-05-02 08:51:01.598,-0.1569064,-0.0980664999999988,9.8458766
2026-05-02 08:51:01.849,-0.1569064,-0.0882598499999988,9.83606995
2026-05-02 08:51:02.098,-0.1569064,-0.0882598499999988,9.83606995
2026-05-02 08:51:02.364,-0.1569064,-0.0980664999999988,9.8458766
2026-05-02 08:51:02.598,-0.1569064,-0.0980664999999988,9.8458766
2026-05-02 08:51:02.845,-0.1569064,-0.0882598499999988,9.8458766
2026-05-02 08:51:03.096,-0.1569064,-0.0882598499999988,9.8458766
2026-05-02 08:51:03.355,-0.1569064,-0.0882598499999988,9.83606995
2026-05-02 08:51:03.598,-0.1569064,-0.0882598499999988,9.83606995
2026-05-02 08:51:03.848,-0.1569064,-0.0882598499999988,9.83606995
2026-05-02 08:51:04.099,-0.1569064,-0.0882598499999988,9.83606995
2026-05-02 08:51:04.364,-0.16671305,-0.0882598499999988,9.83606995
2026-05-02 08:51:04.598,-0.16671305,-0.0882598499999988,9.83606995
2026-05-02 08:51:04.844,-0.1569064,-0.0980664999999988,9.8262633
2026-05-02 08:51:05.098,-0.1569064,-0.0980664999999988,9.8262633
2026-05-02 08:51:05.360,-0.1765197,-0.0882598499999988,9.8458766
2026-05-02 08:51:05.598,-0.1765197,-0.0882598499999988,9.8458766
2026-05-02 08:51:05.847,-0.14709975,-0.0980664999999988,9.83606995
2026-05-02 08:51:06.097,-0.14709975,-0.0980664999999988,9.83606995
2026-05-02 08:51:06.355,-0.16671305,-0.0980664999999988,9.85568325
2026-05-02 08:51:06.598,-0.16671305,-0.0980664999999988,9.85568325
2026-05-02 08:51:06.850,-0.1569064,-0.0980664999999988,9.8458766
2026-05-02 08:51:07.098,-0.1569064,-0.0980664999999988,9.8458766
2026-05-02 08:51:07.357,-0.16671305,-0.0882598499999988,9.8458766
2026-05-02 08:51:07.598,-0.16671305,-0.0882598499999988,9.8458766
2026-05-02 08:51:07.845,-0.16671305,-0.0882598499999988,9.8458766
2026-05-02 08:51:08.098,-0.16671305,-0.0882598499999988,9.8458766
2026-05-02 08:51:08.339,-0.1569064,-0.0882598499999988,9.8262633
2026-05-02 08:51:08.598,-0.1569064,-0.0882598499999988,9.8262633
2026-05-02 08:51:08.844,-0.16671305,-0.0980664999999988,9.8458766
2026-05-02 08:51:09.096,-0.16671305,-0.0980664999999988,9.8458766
2026-05-02 08:51:09.356,-0.16671305,-0.0784531999999988,9.8458766
2026-05-02 08:51:09.598,-0.16671305,-0.0784531999999988,9.8458766
2026-05-02 08:51:09.845,-0.1569064,-0.0980664999999988,9.8458766
2026-05-02 08:51:10.095,-0.1569064,-0.0980664999999988,9.8458766
2026-05-02 08:51:10.362,-0.16671305,-0.0882598499999988,9.8458766
2026-05-02 08:51:10.599,-0.16671305,-0.0882598499999988,9.8458766
2026-05-02 08:51:10.849,-0.1569064,-0.0882598499999988,9.8458766
2026-05-02 08:51:11.097,-0.1569064,-0.0882598499999988,9.8458766
2026-05-02 08:51:11.351,-0.1569064,-0.0980664999999988,9.83606995
2026-05-02 08:51:11.598,-0.1569064,-0.0980664999999988,9.83606995
2026-05-02 08:51:11.846,-0.16671305,-0.0882598499999988,9.8458766
2026-05-02 08:51:12.095,-0.16671305,-0.0882598499999988,9.8458766
2026-05-02 08:51:12.352,-0.1569064,-0.0980664999999988,9.83606995
2026-05-02 08:51:12.598,-0.1569064,-0.0980664999999988,9.83606995
2026-05-02 08:51:12.849,-0.16671305,-0.0882598499999988,9.83606995
2026-05-02 08:51:13.100,-0.16671305,-0.0882598499999988,9.83606995
2026-05-02 08:51:13.354,-0.16671305,-0.0882598499999988,9.85568325
2026-05-02 08:51:13.597,-0.16671305,-0.0882598499999988,9.85568325
2026-05-02 08:51:13.850,-0.16671305,-0.0980664999999988,9.8458766
2026-05-02 08:51:14.096,-0.16671305,-0.0980664999999988,9.8458766
2026-05-02 08:51:14.362,-0.16671305,-0.0980664999999988,9.8458766
2026-05-02 08:51:14.598,-0.16671305,-0.0980664999999988,9.8458766
2026-05-02 08:51:14.846,-0.1569064,-0.0882598499999988,9.83606995
2026-05-02 08:51:15.097,-0.1569064,-0.0882598499999988,9.83606995
2026-05-02 08:51:15.362,-0.16671305,-0.0980664999999988,9.83606995
2026-05-02 08:51:15.598,-0.16671305,-0.0980664999999988,9.83606995
2026-05-02 08:51:15.847,-0.16671305,-0.0882598499999988,9.8458766
2026-05-02 08:51:16.097,-0.16671305,-0.0882598499999988,9.8458766
2026-05-02 08:51:16.358,-0.16671305,-0.0882598499999988,9.8458766
2026-05-02 08:51:16.598,-0.16671305,-0.0882598499999988,9.8458766
2026-05-02 08:51:16.844,-0.16671305,-0.0882598499999988,9.8458766
2026-05-02 08:51:17.097,-0.16671305,-0.0882598499999988,9.8458766
2026-05-02 08:51:17.351,-0.1569064,-0.0980664999999988,9.83606995
2026-05-02 08:51:17.597,-0.1569064,-0.0980664999999988,9.83606995
2026-05-02 08:51:17.850,-0.1569064,-0.0882598499999988,9.83606995
2026-05-02 08:51:18.096,-0.1569064,-0.0882598499999988,9.83606995
2026-05-02 08:51:18.348,-0.1569064,-0.0882598499999988,9.8458766
2026-05-02 08:51:18.597,-0.1569064,-0.0882598499999988,9.8458766
2026-05-02 08:51:18.850,-0.16671305,-0.0980664999999988,9.8458766
2026-05-02 08:51:19.095,-0.16671305,-0.0980664999999988,9.8458766
2026-05-02 08:51:19.353,-0.16671305,-0.0882598499999988,9.83606995
2026-05-02 08:51:19.597,-0.16671305,-0.0882598499999988,9.83606995
2026-05-02 08:51:19.847,-0.16671305,-0.0882598499999988,9.83606995
2026-05-02 08:51:20.095,-0.16671305,-0.0882598499999988,9.83606995
2026-05-02 08:51:20.358,-0.16671305,-0.0980664999999988,9.83606995
2026-05-02 08:51:20.598,-0.16671305,-0.0980664999999988,9.83606995
2026-05-02 08:51:20.846,-0.16671305,-0.0980664999999988,9.8458766
2026-05-02 08:51:21.101,-0.16671305,-0.0980664999999988,9.8458766
2026-05-02 08:51:21.347,-0.16671305,-0.0882598499999988,9.83606995
2026-05-02 08:51:21.597,-0.16671305,-0.0882598499999988,9.83606995
2026-05-02 08:51:21.849,-0.16671305,-0.0980664999999988,9.8458766
2026-05-02 08:51:22.097,-0.16671305,-0.0980664999999988,9.8458766
2026-05-02 08:51:22.357,-0.1569064,-0.0882598499999988,9.83606995
2026-05-02 08:51:22.598,-0.1569064,-0.0882598499999988,9.83606995
2026-05-02 08:51:22.845,-0.16671305,-0.0882598499999988,9.8458766
2026-05-02 08:51:23.098,-0.16671305,-0.0882598499999988,9.8458766
2026-05-02 08:51:23.353,-0.1765197,-0.0882598499999988,9.8458766
2026-05-02 08:51:23.598,-0.1765197,-0.0882598499999988,9.8458766
2026-05-02 08:51:23.852,-0.1569064,-0.0882598499999988,9.83606995
2026-05-02 08:51:24.095,-0.1569064,-0.0882598499999988,9.83606995
2026-05-02 08:51:24.356,0.4118793,-0.10787314999999882,9.67916355
2026-05-02 08:51:24.598,0.4118793,-0.10787314999999882,9.67916355
2026-05-02 08:51:24.849,0.0196133,-0.0686465499999988,9.85568325
2026-05-02 08:51:25.095,0.0196133,-0.0686465499999988,9.85568325
2026-05-02 08:51:25.358,0.1176798,-0.0882598499999988,9.81645665
2026-05-02 08:51:25.598,0.1176798,-0.0882598499999988,9.81645665
2026-05-02 08:51:25.856,-0.4314926,-0.08825984999999878,9.9635564
2026-05-02 08:51:26.098,-0.4314926,-0.08825984999999878,9.9635564
2026-05-02 08:51:26.351,-0.1569064,-0.009806649999998794,9.8458766
2026-05-02 08:51:26.599,-0.1569064,-0.009806649999998794,9.8458766
2026-05-02 08:51:26.851,-0.28439285000000003,0.08825985000000121,9.83606995
2026-05-02 08:51:27.097,-0.28439285000000003,0.08825985000000121,9.83606995
2026-05-02 08:51:27.356,-0.2745862,0.07845320000000121,9.83606995
2026-05-02 08:51:27.597,-0.2745862,0.07845320000000121,9.83606995
2026-05-02 08:51:27.844,-0.26477955,0.01961330000000121,9.87529655
2026-05-02 08:51:28.098,-0.26477955,0.01961330000000121,9.87529655
2026-05-02 08:51:28.351,-0.2353596,-0.1274864499999988,9.83606995
2026-05-02 08:51:28.598,-0.2353596,-0.1274864499999988,9.83606995
2026-05-02 08:51:28.844,-0.20593965,-0.0882598499999988,9.85568325
2026-05-02 08:51:29.099,-0.20593965,-0.0882598499999988,9.85568325
2026-05-02 08:51:29.358,-0.196133,-0.1470997499999988,9.85568325
2026-05-02 08:51:29.598,-0.196133,-0.1470997499999988,9.85568325
2026-05-02 08:51:29.846,-0.196133,-0.0784531999999988,9.83606995
2026-05-02 08:51:30.100,-0.196133,-0.0784531999999988,9.83606995
2026-05-02 08:51:30.352,-0.18632635,-0.1078731499999988,9.83606995
2026-05-02 08:51:30.598,-0.18632635,-0.1078731499999988,9.83606995
2026-05-02 08:51:30.848,-0.18632635,-0.1078731499999988,9.85568325
2026-05-02 08:51:31.097,-0.18632635,-0.1078731499999988,9.85568325
2026-05-02 08:51:31.352,-0.16671305,-0.0882598499999988,9.83606995
2026-05-02 08:51:31.598,-0.16671305,-0.0882598499999988,9.83606995
2026-05-02 08:51:31.845,-0.196133,-0.1078731499999988,9.8458766
2026-05-02 08:51:32.097,-0.196133,-0.1078731499999988,9.8458766
2026-05-02 08:51:32.360,-0.1569064,-0.0882598499999988,9.83606995
2026-05-02 08:51:32.598,-0.1569064,-0.0882598499999988,9.83606995
2026-05-02 08:51:32.851,-0.1765197,-0.0980664999999988,9.8458766
2026-05-02 08:51:33.096,-0.1765197,-0.0980664999999988,9.8458766
2026-05-02 08:51:33.344,-0.16671305,-0.0882598499999988,9.8458766
2026-05-02 08:51:33.597,-0.16671305,-0.0882598499999988,9.8458766
2026-05-02 08:51:33.845,-0.16671305,-0.0882598499999988,9.8458766
2026-05-02 08:51:34.094,-0.16671305,-0.0882598499999988,9.8458766
2026-05-02 08:51:34.357,-0.16671305,-0.0980664999999988,9.8458766
2026-05-02 08:51:34.597,-0.16671305,-0.0980664999999988,9.8458766
2026-05-02 08:51:34.845,-0.16671305,-0.0882598499999988,9.83606995
2026-05-02 08:51:35.094,-0.16671305,-0.0882598499999988,9.83606995
2026-05-02 08:51:35.354,-0.16671305,-0.0882598499999988,9.8458766
2026-05-02 08:51:35.597,-0.16671305,-0.0882598499999988,9.8458766
2026-05-02 08:51:35.851,-0.1569064,-0.0980664999999988,9.83606995
2026-05-02 08:51:36.096,-0.1569064,-0.0980664999999988,9.83606995
2026-05-02 08:51:36.359,-0.16671305,-0.0882598499999988,9.8458766
2026-05-02 08:51:36.598,-0.16671305,-0.0882598499999988,9.8458766
2026-05-02 08:51:36.849,-0.1569064,-0.0980664999999988,9.8458766
2026-05-02 08:51:37.096,-0.1569064,-0.0980664999999988,9.8458766
2026-05-02 08:51:37.357,-0.16671305,-0.0980664999999988,9.8458766
2026-05-02 08:51:37.597,-0.16671305,-0.0980664999999988,9.8458766
2026-05-02 08:51:37.850,-0.16671305,-0.0980664999999988,9.83606995
2026-05-02 08:51:38.096,-0.16671305,-0.0980664999999988,9.83606995
2026-05-02 08:51:38.354,-0.16671305,-0.0882598499999988,9.8458766
2026-05-02 08:51:38.597,-0.16671305,-0.0882598499999988,9.8458766
2026-05-02 08:51:38.853,-0.16671305,-0.0980664999999988,9.8458766
2026-05-02 08:51:39.098,-0.16671305,-0.0980664999999988,9.8458766
2026-05-02 08:51:39.354,-0.1569064,-0.0980664999999988,9.83606995
2026-05-02 08:51:39.596,-0.1569064,-0.0980664999999988,9.83606995
2026-05-02 08:51:39.846,-0.16671305,-0.0980664999999988,9.83606995
2026-05-02 08:51:40.095,-0.16671305,-0.0980664999999988,9.83606995
2026-05-02 08:51:40.363,-0.16671305,-0.1078731499999988,9.83606995
2026-05-02 08:51:40.597,-0.16671305,-0.1078731499999988,9.83606995
2026-05-02 08:51:40.850,-0.16671305,-0.0980664999999988,9.8458766
2026-05-02 08:51:41.097,-0.16671305,-0.0980664999999988,9.8458766
2026-05-02 08:51:41.361,-0.16671305,-0.0882598499999988,9.8458766
2026-05-02 08:51:41.598,-0.16671305,-0.0882598499999988,9.8458766
2026-05-02 08:51:41.843,-0.1569064,-0.0980664999999988,9.8458766
2026-05-02 08:51:42.097,-0.1569064,-0.0980664999999988,9.8458766
2026-05-02 08:51:42.357,-0.16671305,-0.0882598499999988,9.85568325
2026-05-02 08:51:42.596,-0.16671305,-0.0882598499999988,9.85568325
2026-05-02 08:51:42.844,-0.1569064,-0.0882598499999988,9.8458766
2026-05-02 08:51:43.096,-0.1569064,-0.0882598499999988,9.8458766
2026-05-02 08:51:43.344,-0.1569064,-0.0980664999999988,9.83606995
2026-05-02 08:51:43.597,-0.1569064,-0.0980664999999988,9.83606995
2026-05-02 08:51:43.856,-0.16671305,-0.0882598499999988,9.83606995
2026-05-02 08:51:44.094,-0.16671305,-0.0882598499999988,9.83606995
2026-05-02 08:51:44.356,-0.1569064,-0.0882598499999988,9.83606995
2026-05-02 08:51:44.598,-0.1569064,-0.0882598499999988,9.83606995
2026-05-02 08:51:44.846,-0.1569064,-0.0980664999999988,9.8458766
2026-05-02 08:51:45.095,-0.1569064,-0.0980664999999988,9.8458766
2026-05-02 08:51:45.350,-0.16671305,-0.0882598499999988,9.8458766
2026-05-02 08:51:45.598,-0.16671305,-0.0882598499999988,9.8458766
2026-05-02 08:51:45.848,-0.1569064,-0.0980664999999988,9.83606995
2026-05-02 08:51:46.097,-0.1569064,-0.0980664999999988,9.83606995
2026-05-02 08:51:46.353,-0.16671305,-0.0882598499999988,9.83606995
2026-05-02 08:51:46.598,-0.16671305,-0.0882598499999988,9.83606995
2026-05-02 08:51:46.843,-0.1569064,-0.0882598499999988,9.8458766
2026-05-02 08:51:47.097,-0.1569064,-0.0882598499999988,9.8458766
2026-05-02 08:51:47.350,-0.16671305,-0.0980664999999988,9.85568325
2026-05-02 08:51:47.597,-0.16671305,-0.0980664999999988,9.85568325
2026-05-02 08:51:47.845,-0.16671305,-0.0882598499999988,9.85568325
2026-05-02 08:51:48.098,-0.16671305,-0.0882598499999988,9.85568325
2026-05-02 08:51:48.341,-0.1569064,-0.0980664999999988,9.83606995
2026-05-02 08:51:48.597,-0.1569064,-0.0980664999999988,9.83606995
2026-05-02 08:51:48.849,-0.1569064,-0.0882598499999988,9.83606995
2026-05-02 08:51:49.096,-0.1569064,-0.0882598499999988,9.83606995
2026-05-02 08:51:49.351,-0.1569064,-0.0980664999999988,9.83606995
2026-05-02 08:51:49.597,-0.1569064,-0.0980664999999988,9.83606995
2026-05-02 08:51:49.845,-0.16671305,-0.0980664999999988,9.8458766
2026-05-02 08:51:50.095,-0.16671305,-0.0980664999999988,9.8458766
2026-05-02 08:51:50.354,-0.16671305,-0.0882598499999988,9.83606995
2026-05-02 08:51:50.597,-0.16671305,-0.0882598499999988,9.83606995
2026-05-02 08:51:50.846,-0.1569064,-0.0980664999999988,9.83606995
2026-05-02 08:51:51.096,-0.1569064,-0.0980664999999988,9.83606995
2026-05-02 08:51:51.357,-0.16671305,-0.0882598499999988,9.83606995
2026-05-02 08:51:51.598,-0.16671305,-0.0882598499999988,9.83606995
2026-05-02 08:51:51.843,-0.1569064,-0.0882598499999988,9.8458766
2026-05-02 08:51:52.096,-0.1569064,-0.0882598499999988,9.8458766
2026-05-02 08:51:52.363,-0.16671305,-0.0784531999999988,9.85568325
2026-05-02 08:51:52.597,-0.16671305,-0.0784531999999988,9.85568325
2026-05-02 08:51:52.844,-0.1569064,-0.0980664999999988,9.85568325
2026-05-02 08:51:53.096,-0.1569064,-0.0980664999999988,9.85568325
2026-05-02 08:51:53.352,-0.1569064,-0.0882598499999988,9.8458766
2026-05-02 08:51:53.597,-0.1569064,-0.0882598499999988,9.8458766
2026-05-02 08:51:53.844,-0.1569064,-0.0882598499999988,9.83606995
2026-05-02 08:51:54.099,-0.1569064,-0.0882598499999988,9.83606995
2026-05-02 08:51:54.363,-0.1569064,-0.0980664999999988,9.8458766
2026-05-02 08:51:54.597,-0.1569064,-0.0980664999999988,9.8458766
2026-05-02 08:51:54.846,-0.16671305,-0.0882598499999988,9.8458766
2026-05-02 08:51:55.095,-0.16671305,-0.0882598499999988,9.8458766
2026-05-02 08:51:55.358,-0.1569064,-0.0882598499999988,9.8458766
2026-05-02 08:51:55.597,-0.1569064,-0.0882598499999988,9.8458766
2026-05-02 08:51:55.847,-0.16671305,-0.0980664999999988,9.83606995
2026-05-02 08:51:56.096,-0.16671305,-0.0980664999999988,9.83606995
2026-05-02 08:51:56.356,-0.16671305,-0.0882598499999988,9.83606995
2026-05-02 08:51:56.596,-0.16671305,-0.0882598499999988,9.83606995
2026-05-02 08:51:56.841,-0.1569064,-0.0882598499999988,9.83606995
2026-05-02 08:51:57.094,-0.1569064,-0.0882598499999988,9.83606995
2026-05-02 08:51:57.352,-0.16671305,-0.0882598499999988,9.85568325
2026-05-02 08:51:57.597,-0.16671305,-0.0882598499999988,9.85568325
2026-05-02 08:51:57.844,-0.16671305,-0.0882598499999988,9.85568325
2026-05-02 08:51:58.097,-0.16671305,-0.0882598499999988,9.85568325
2026-05-02 08:51:58.354,-0.1569064,-0.0980664999999988,9.8458766
2026-05-02 08:51:58.596,-0.1569064,-0.0980664999999988,9.8458766
2026-05-02 08:51:58.844,-0.1569064,-0.0882598499999988,9.83606995
2026-05-02 08:51:59.098,-0.1569064,-0.0882598499999988,9.83606995
2026-05-02 08:51:59.365,-0.16671305,-0.0882598499999988,9.8458766
2026-05-02 08:51:59.596,-0.16671305,-0.0882598499999988,9.8458766
2026-05-02 08:51:59.850,-0.1569064,-0.0784531999999988,9.8458766
2026-05-02 08:52:00.097,-0.1569064,-0.0784531999999988,9.8458766
2026-05-02 08:52:00.362,-0.1569064,-0.0980664999999988,9.85568325
2026-05-02 08:52:00.597,-0.1569064,-0.0980664999999988,9.85568325
2026-05-02 08:52:00.846,-0.16671305,-0.0882598499999988,9.8458766
2026-05-02 08:52:01.095,-0.16671305,-0.0882598499999988,9.8458766
2026-05-02 08:52:01.361,-0.1569064,-0.0980664999999988,9.83606995
2026-05-02 08:52:01.597,-0.1569064,-0.0980664999999988,9.83606995
2026-05-02 08:52:01.845,-0.1569064,-0.0882598499999988,9.8458766
2026-05-02 08:52:02.095,-0.1569064,-0.0882598499999988,9.8458766
2026-05-02 08:52:02.360,-0.1569064,-0.0882598499999988,9.85568325
2026-05-02 08:52:02.596,-0.1569064,-0.0882598499999988,9.85568325
2026-05-02 08:52:02.844,-0.16671305,-0.0980664999999988,9.85568325
2026-05-02 08:52:03.095,-0.16671305,-0.0980664999999988,9.85568325
2026-05-02 08:52:03.355,-0.16671305,-0.0784531999999988,9.8458766
2026-05-02 08:52:03.596,-0.16671305,-0.0784531999999988,9.8458766
2026-05-02 08:52:03.848,-0.1569064,-0.0980664999999988,9.8458766
2026-05-02 08:52:04.094,-0.1569064,-0.0980664999999988,9.8458766
2026-05-02 08:52:04.359,-0.1569064,-0.0882598499999988,9.8458766
2026-05-02 08:52:04.596,-0.1569064,-0.0882598499999988,9.8458766
2026-05-02 08:52:04.850,-0.1569064,-0.0980664999999988,9.8458766
2026-05-02 08:52:05.095,-0.1569064,-0.0980664999999988,9.8458766
2026-05-02 08:52:05.352,-0.1569064,-0.0980664999999988,9.83606995
2026-05-02 08:52:05.597,-0.1569064,-0.0980664999999988,9.83606995
2026-05-02 08:52:05.846,-0.16671305,-0.0882598499999988,9.8458766
2026-05-02 08:52:06.095,-0.16671305,-0.0882598499999988,9.8458766
2026-05-02 08:52:06.359,-0.1569064,-0.0980664999999988,9.8458766
2026-05-02 08:52:06.596,-0.1569064,-0.0980664999999988,9.8458766
2026-05-02 08:52:06.848,-0.16671305,-0.0882598499999988,9.8458766
2026-05-02 08:52:07.096,-0.16671305,-0.0882598499999988,9.8458766
2026-05-02 08:52:07.349,-0.16671305,-0.0980664999999988,9.8458766
2026-05-02 08:52:07.597,-0.16671305,-0.0980664999999988,9.8458766
2026-05-02 08:52:07.848,-0.1569064,-0.0882598499999988,9.83606995
2026-05-02 08:52:08.095,-0.1569064,-0.0882598499999988,9.83606995
2026-05-02 08:52:08.352,-0.16671305,-0.0784531999999988,9.8458766
2026-05-02 08:52:08.596,-0.16671305,-0.0784531999999988,9.8458766
2026-05-02 08:52:08.844,-0.16671305,-0.0882598499999988,9.8458766
2026-05-02 08:52:09.094,-0.16671305,-0.0882598499999988,9.8458766
2026-05-02 08:52:09.354,-0.1569064,-0.0882598499999988,9.8458766
2026-05-02 08:52:09.597,-0.1569064,-0.0882598499999988,9.8458766
2026-05-02 08:52:09.843,-0.1569064,-0.0980664999999988,9.83606995
2026-05-02 08:52:10.094,-0.1569064,-0.0980664999999988,9.83606995
2026-05-02 08:52:10.357,-0.1569064,-0.0784531999999988,9.83606995
2026-05-02 08:52:10.597,-0.1569064,-0.0784531999999988,9.83606995
2026-05-02 08:52:10.844,-0.16671305,-0.0882598499999988,9.8458766
2026-05-02 08:52:11.096,-0.16671305,-0.0882598499999988,9.8458766
2026-05-02 08:52:11.358,-0.1569064,-0.0980664999999988,9.8458766
2026-05-02 08:52:11.601,-0.1569064,-0.0980664999999988,9.8458766
2026-05-02 08:52:11.845,-0.16671305,-0.0882598499999988,9.85568325
2026-05-02 08:52:12.096,-0.16671305,-0.0882598499999988,9.85568325
2026-05-02 08:52:12.353,-0.16671305,-0.0882598499999988,9.8458766
2026-05-02 08:52:12.598,-0.16671305,-0.0882598499999988,9.8458766
2026-05-02 08:52:12.845,-0.1569064,-0.0980664999999988,9.83606995
2026-05-02 08:52:13.096,-0.1569064,-0.0980664999999988,9.83606995
2026-05-02 08:52:13.352,-0.16671305,-0.0882598499999988,9.8458766
2026-05-02 08:52:13.596,-0.16671305,-0.0882598499999988,9.8458766
2026-05-02 08:52:13.842,-0.1569064,-0.0882598499999988,9.8458766
2026-05-02 08:52:14.097,-0.1569064,-0.0882598499999988,9.8458766
2026-05-02 08:52:14.351,-0.16671305,-0.0882598499999988,9.8458766
2026-05-02 08:52:14.596,-0.16671305,-0.0882598499999988,9.8458766
2026-05-02 08:52:14.840,-0.1569064,-0.0882598499999988,9.8458766
2026-05-02 08:52:15.096,-0.1569064,-0.0882598499999988,9.8458766
2026-05-02 08:52:15.352,-0.16671305,-0.0882598499999988,9.85568325
2026-05-02 08:52:15.598,-0.16671305,-0.0882598499999988,9.85568325
2026-05-02 08:52:15.847,-0.16671305,-0.0882598499999988,9.8458766
2026-05-02 08:52:16.097,-0.16671305,-0.0882598499999988,9.8458766
2026-05-02 08:52:16.352,-0.1569064,-0.0980664999999988,9.8458766
2026-05-02 08:52:16.597,-0.1569064,-0.0980664999999988,9.8458766
2026-05-02 08:52:16.845,-0.16671305,-0.0882598499999988,9.8458766
2026-05-02 08:52:17.096,-0.16671305,-0.0882598499999988,9.8458766
2026-05-02 08:52:17.355,-0.1569064,-0.0882598499999988,9.83606995
2026-05-02 08:52:17.597,-0.1569064,-0.0882598499999988,9.83606995
2026-05-02 08:52:17.851,-0.16671305,-0.0980664999999988,9.83606995
2026-05-02 08:52:18.096,-0.16671305,-0.0980664999999988,9.83606995
2026-05-02 08:52:18.350,-0.16671305,-0.0882598499999988,9.8458766
2026-05-02 08:52:18.595,-0.16671305,-0.0882598499999988,9.8458766
2026-05-02 08:52:18.844,-0.16671305,-0.0980664999999988,9.8458766
2026-05-02 08:52:19.093,-0.16671305,-0.0980664999999988,9.8458766
2026-05-02 08:52:19.350,-0.1569064,-0.0980664999999988,9.8458766
2026-05-02 08:52:19.595,-0.1569064,-0.0980664999999988,9.8458766
2026-05-02 08:52:19.844,-0.16671305,-0.0882598499999988,9.8458766
2026-05-02 08:52:20.095,-0.16671305,-0.0882598499999988,9.8458766
2026-05-02 08:52:20.354,-0.1569064,-0.0882598499999988,9.8458766
2026-05-02 08:52:20.596,-0.1569064,-0.0882598499999988,9.8458766
2026-05-02 08:52:20.845,-0.16671305,-0.0882598499999988,9.8458766
2026-05-02 08:52:21.095,-0.16671305,-0.0882598499999988,9.8458766
2026-05-02 08:52:21.363,-0.1569064,-0.0980664999999988,9.83606995
2026-05-02 08:52:21.597,-0.1569064,-0.0980664999999988,9.83606995
2026-05-02 08:52:21.859,-0.1569064,-0.0882598499999988,9.8458766
2026-05-02 08:52:22.095,-0.1569064,-0.0882598499999988,9.8458766
2026-05-02 08:52:22.351,-0.16671305,-0.0980664999999988,9.8458766
2026-05-02 08:52:22.596,-0.16671305,-0.0980664999999988,9.8458766
2026-05-02 08:52:22.845,-0.1569064,-0.0882598499999988,9.83606995
2026-05-02 08:52:23.096,-0.1569064,-0.0882598499999988,9.83606995
2026-05-02 08:52:23.344,-0.16671305,-0.0980664999999988,9.85568325
2026-05-02 08:52:23.593,-0.16671305,-0.0980664999999988,9.85568325
2026-05-02 08:52:23.848,-0.1569064,-0.0980664999999988,9.83606995
2026-05-02 08:52:24.096,-0.1569064,-0.0980664999999988,9.83606995
2026-05-02 08:52:24.360,-0.16671305,-0.0784531999999988,9.8458766
2026-05-02 08:52:24.595,-0.16671305,-0.0784531999999988,9.8458766
2026-05-02 08:52:24.844,-0.1569064,-0.0980664999999988,9.8458766
2026-05-02 08:52:25.097,-0.1569064,-0.0980664999999988,9.8458766
2026-05-02 08:52:25.360,-0.16671305,-0.0882598499999988,9.8458766
2026-05-02 08:52:25.596,-0.16671305,-0.0882598499999988,9.8458766
2026-05-02 08:52:25.847,-0.1569064,-0.0882598499999988,9.8458766
2026-05-02 08:52:26.095,-0.1569064,-0.0882598499999988,9.8458766
2026-05-02 08:52:26.360,-0.1569064,-0.0980664999999988,9.8458766
2026-05-02 08:52:26.597,-0.1569064,-0.0980664999999988,9.8458766
2026-05-02 08:52:26.855,-0.1569064,-0.0882598499999988,9.8458766
2026-05-02 08:52:27.096,-0.1569064,-0.0882598499999988,9.8458766
2026-05-02 08:52:27.354,-0.16671305,-0.0882598499999988,9.8458766
2026-05-02 08:52:27.596,-0.16671305,-0.0882598499999988,9.8458766
2026-05-02 08:52:27.842,-0.1569064,-0.0882598499999988,9.83606995
2026-05-02 08:52:28.097,-0.1569064,-0.0882598499999988,9.83606995
2026-05-02 08:52:28.340,-0.16671305,-0.0882598499999988,9.8458766
2026-05-02 08:52:28.596,-0.16671305,-0.0882598499999988,9.8458766
2026-05-02 08:52:28.843,-0.1569064,-0.0882598499999988,9.8458766
2026-05-02 08:52:29.094,-0.1569064,-0.0882598499999988,9.8458766
2026-05-02 08:52:29.357,-0.1569064,-0.0882598499999988,9.85568325
2026-05-02 08:52:29.597,-0.1569064,-0.0882598499999988,9.85568325
2026-05-02 08:52:29.843,-0.1569064,-0.0980664999999988,9.8458766
2026-05-02 08:52:30.093,-0.1569064,-0.0980664999999988,9.8458766
2026-05-02 08:52:30.354,-0.16671305,-0.0882598499999988,9.8458766
2026-05-02 08:52:30.598,-0.16671305,-0.0882598499999988,9.8458766
2026-05-02 08:52:30.846,-0.1569064,-0.0882598499999988,9.83606995
2026-05-02 08:52:31.096,-0.1569064,-0.0882598499999988,9.83606995
2026-05-02 08:52:31.351,-0.16671305,-0.0882598499999988,9.8458766
2026-05-02 08:52:31.596,-0.16671305,-0.0882598499999988,9.8458766
2026-05-02 08:52:31.855,-0.1569064,-0.0882598499999988,9.8458766
2026-05-02 08:52:32.095,-0.1569064,-0.0882598499999988,9.8458766
2026-05-02 08:52:32.357,-0.14709975,-0.0882598499999988,9.8458766
2026-05-02 08:52:32.593,-0.14709975,-0.0882598499999988,9.8458766
2026-05-02 08:52:32.839,-0.16671305,-0.0882598499999988,9.8458766
2026-05-02 08:52:33.096,-0.16671305,-0.0882598499999988,9.8458766
2026-05-02 08:52:33.345,-0.1569064,-0.0980664999999988,9.83606995
2026-05-02 08:52:33.596,-0.1569064,-0.0980664999999988,9.83606995
2026-05-02 08:52:33.845,-0.16671305,-0.0882598499999988,9.83606995
2026-05-02 08:52:34.098,-0.16671305,-0.0882598499999988,9.83606995
2026-05-02 08:52:34.352,-0.14709975,-0.0882598499999988,9.83606995
2026-05-02 08:52:34.596,-0.14709975,-0.0882598499999988,9.83606995
2026-05-02 08:52:34.845,-0.16671305,-0.0980664999999988,9.85568325
2026-05-02 08:52:35.095,-0.16671305,-0.0980664999999988,9.85568325
2026-05-02 08:52:35.361,-0.1569064,-0.0980664999999988,9.8458766
2026-05-02 08:52:35.597,-0.1569064,-0.0980664999999988,9.8458766
2026-05-02 08:52:35.844,-0.14709975,-0.0882598499999988,9.83606995
2026-05-02 08:52:36.095,-0.14709975,-0.0882598499999988,9.83606995
2026-05-02 08:52:36.356,-0.16671305,-0.0882598499999988,9.85568325
2026-05-02 08:52:36.597,-0.16671305,-0.0882598499999988,9.85568325
2026-05-02 08:52:36.842,-0.1569064,-0.0980664999999988,9.8458766
2026-05-02 08:52:37.096,-0.1569064,-0.0980664999999988,9.8458766
2026-05-02 08:52:37.358,-0.1569064,-0.0882598499999988,9.8458766
2026-05-02 08:52:37.596,-0.1569064,-0.0882598499999988,9.8458766
2026-05-02 08:52:37.844,-0.16671305,-0.0882598499999988,9.8458766
2026-05-02 08:52:38.096,-0.16671305,-0.0882598499999988,9.8458766
2026-05-02 08:52:38.345,-0.1569064,-0.0980664999999988,9.8458766
2026-05-02 08:52:38.596,-0.1569064,-0.0980664999999988,9.8458766
2026-05-02 08:52:38.844,-0.1569064,-0.0784531999999988,9.8458766
2026-05-02 08:52:39.093,-0.1569064,-0.0784531999999988,9.8458766
2026-05-02 08:52:39.349,-0.1569064,-0.0980664999999988,9.8458766
2026-05-02 08:52:39.596,-0.1569064,-0.0980664999999988,9.8458766
2026-05-02 08:52:39.844,-0.16671305,-0.0882598499999988,9.8458766
2026-05-02 08:52:40.093,-0.16671305,-0.0882598499999988,9.8458766
2026-05-02 08:52:40.363,-0.14709975,-0.0882598499999988,9.8262633
2026-05-02 08:52:40.596,-0.14709975,-0.0882598499999988,9.8262633
2026-05-02 08:52:40.844,-0.1569064,-0.0980664999999988,9.83606995
2026-05-02 08:52:41.094,-0.1569064,-0.0980664999999988,9.83606995
2026-05-02 08:52:41.364,-0.1765197,-0.0882598499999988,9.85568325
2026-05-02 08:52:41.596,-0.1765197,-0.0882598499999988,9.85568325
2026-05-02 08:52:41.867,-0.1569064,-0.0980664999999988,9.83606995
2026-05-02 08:52:42.096,-0.1569064,-0.0980664999999988,9.83606995
2026-05-02 08:52:42.361,-0.16671305,-0.0980664999999988,9.8458766
2026-05-02 08:52:42.595,-0.16671305,-0.0980664999999988,9.8458766
2026-05-02 08:52:42.847,-0.1569064,-0.0980664999999988,9.83606995
2026-05-02 08:52:43.095,-0.1569064,-0.0980664999999988,9.83606995
2026-05-02 08:52:43.350,-0.1569064,-0.0882598499999988,9.8458766
2026-05-02 08:52:43.595,-0.1569064,-0.0882598499999988,9.8458766
2026-05-02 08:52:43.848,-0.16671305,-0.0882598499999988,9.8458766
2026-05-02 08:52:44.093,-0.16671305,-0.0882598499999988,9.8458766
2026-05-02 08:52:44.357,-0.16671305,-0.0980664999999988,9.85568325
2026-05-02 08:52:44.596,-0.16671305,-0.0980664999999988,9.85568325
2026-05-02 08:52:44.838,-0.16671305,-0.0882598499999988,9.8458766
2026-05-02 08:52:45.094,-0.16671305,-0.0882598499999988,9.8458766
2026-05-02 08:52:45.361,-0.14709975,-0.0980664999999988,9.83606995
2026-05-02 08:52:45.596,-0.14709975,-0.0980664999999988,9.83606995
2026-05-02 08:52:45.846,-0.14709975,0.1372931000000012,9.8458766
2026-05-02 08:52:46.096,-0.14709975,0.1372931000000012,9.8458766
2026-05-02 08:52:46.362,-0.18632635,1.2057721262989826e-15,9.8458766
2026-05-02 08:52:46.596,-0.18632635,1.2057721262989826e-15,9.8458766
2026-05-02 08:52:46.848,-0.1765197,0.009806650000001202,9.81645665
2026-05-02 08:52:47.096,-0.1765197,0.009806650000001202,9.81645665
2026-05-02 08:52:47.359,-0.2745862,-0.22555294999999878,9.83606995
2026-05-02 08:52:47.596,-0.2745862,-0.22555294999999878,9.83606995
2026-05-02 08:52:47.845,-0.1372931,-0.2157462999999988,9.77723005
2026-05-02 08:52:48.095,-0.1372931,-0.2157462999999988,9.77723005
2026-05-02 08:52:48.353,0.2353596,-0.05883989999999881,9.75761675
2026-05-02 08:52:48.595,0.2353596,-0.05883989999999881,9.75761675
2026-05-02 08:52:48.845,0.0784532,-0.13729309999999878,9.9439431
2026-05-02 08:52:49.093,0.0784532,-0.13729309999999878,9.9439431
2026-05-02 08:52:49.365,-0.2549729,-0.1372930999999988,9.83606995
2026-05-02 08:52:49.595,-0.2549729,-0.1372930999999988,9.83606995
2026-05-02 08:52:49.843,-0.3138128,-0.0882598499999988,9.80665
2026-05-02 08:52:50.094,-0.3138128,-0.0882598499999988,9.80665
2026-05-02 08:52:50.347,-0.20593965,-0.0980664999999988,9.7674234
2026-05-02 08:52:50.595,-0.20593965,-0.0980664999999988,9.7674234
2026-05-02 08:52:50.847,-0.00980665,-0.1078731499999988,9.81645665
2026-05-02 08:52:51.096,-0.00980665,-0.1078731499999988,9.81645665
2026-05-02 08:52:51.353,-0.36284605000000003,0.11767980000000121,9.81645665
2026-05-02 08:52:51.596,-0.36284605000000003,0.11767980000000121,9.81645665
2026-05-02 08:52:51.860,-0.2549729,-0.1078731499999988,9.77723005
2026-05-02 08:52:52.095,-0.2549729,-0.1078731499999988,9.77723005
2026-05-02 08:52:52.364,-0.2157463,-0.1470997499999988,9.85568325
2026-05-02 08:52:52.598,-0.2157463,-0.1470997499999988,9.85568325
2026-05-02 08:52:52.847,-0.1765197,-0.1176797999999988,9.83606995
2026-05-02 08:52:53.095,-0.1765197,-0.1176797999999988,9.83606995
2026-05-02 08:52:53.354,-0.18632635,-0.0980664999999988,9.81645665
2026-05-02 08:52:53.596,-0.18632635,-0.0980664999999988,9.81645665
2026-05-02 08:52:53.845,-0.18632635,-0.1176797999999988,9.85568325
2026-05-02 08:52:54.094,-0.18632635,-0.1176797999999988,9.85568325
2026-05-02 08:52:54.347,-0.18632635,-0.0980664999999988,9.8458766
2026-05-02 08:52:54.596,-0.18632635,-0.0980664999999988,9.8458766
2026-05-02 08:52:54.845,-0.1765197,-0.1078731499999988,9.85568325
2026-05-02 08:52:55.097,-0.1765197,-0.1078731499999988,9.85568325
2026-05-02 08:52:55.353,-0.1765197,-0.1078731499999988,9.8262633
2026-05-02 08:52:55.597,-0.1765197,-0.1078731499999988,9.8262633
2026-05-02 08:52:55.851,-0.14709975,-0.0980664999999988,9.83606995
2026-05-02 08:52:56.095,-0.14709975,-0.0980664999999988,9.83606995
2026-05-02 08:52:56.344,-0.18632635,-0.1078731499999988,9.85568325
2026-05-02 08:52:56.593,-0.18632635,-0.1078731499999988,9.85568325
2026-05-02 08:52:56.844,-0.1569064,-0.1176797999999988,9.85568325
2026-05-02 08:52:57.093,-0.1569064,-0.1176797999999988,9.85568325
2026-05-02 08:52:57.342,-0.1569064,-0.0980664999999988,9.83606995
2026-05-02 08:52:57.596,-0.1569064,-0.0980664999999988,9.83606995
2026-05-02 08:52:57.843,-0.16671305,-0.0980664999999988,9.8458766
2026-05-02 08:52:58.096,-0.16671305,-0.0980664999999988,9.8458766
2026-05-02 08:52:58.341,-0.14709975,-0.0980664999999988,9.8458766
2026-05-02 08:52:58.596,-0.14709975,-0.0980664999999988,9.8458766
2026-05-02 08:52:58.846,-0.196133,-0.1078731499999988,9.85568325
2026-05-02 08:52:59.094,-0.196133,-0.1078731499999988,9.85568325
2026-05-02 08:52:59.348,-0.12748645,-0.0784531999999988,9.83606995
2026-05-02 08:52:59.593,-0.12748645,-0.0784531999999988,9.83606995
2026-05-02 08:52:59.844,-0.18632635,-0.0980664999999988,9.8654899
2026-05-02 08:53:00.094,-0.18632635,-0.0980664999999988,9.8654899
2026-05-02 08:53:00.353,-0.14709975,-0.0980664999999988,9.8458766
2026-05-02 08:53:00.593,-0.14709975,-0.0980664999999988,9.8458766
2026-05-02 08:53:00.836,-0.16671305,-0.0784531999999988,9.8458766
2026-05-02 08:53:01.094,-0.16671305,-0.0784531999999988,9.8458766
2026-05-02 08:53:01.345,-0.14709975,-0.0882598499999988,9.83606995
2026-05-02 08:53:01.593,-0.14709975,-0.0882598499999988,9.83606995
2026-05-02 08:53:01.837,-0.16671305,-0.0980664999999988,9.83606995
2026-05-02 08:53:02.094,-0.16671305,-0.0980664999999988,9.83606995
2026-05-02 08:53:02.343,-0.14709975,-0.0784531999999988,9.83606995
2026-05-02 08:53:02.596,-0.14709975,-0.0784531999999988,9.83606995
2026-05-02 08:53:02.850,-0.16671305,-0.0882598499999988,9.85568325
2026-05-02 08:53:03.093,-0.16671305,-0.0882598499999988,9.85568325
2026-05-02 08:53:03.343,-0.16671305,-0.0980664999999988,9.85568325
2026-05-02 08:53:03.593,-0.16671305,-0.0980664999999988,9.85568325
2026-05-02 08:53:03.842,-0.1569064,-0.0882598499999988,9.83606995
2026-05-02 08:53:04.092,-0.1569064,-0.0882598499999988,9.83606995
2026-05-02 08:53:04.345,-0.16671305,-0.0882598499999988,9.83606995
2026-05-02 08:53:04.595,-0.16671305,-0.0882598499999988,9.83606995
2026-05-02 08:53:04.843,-0.14709975,-0.0882598499999988,9.8458766
2026-05-02 08:53:05.093,-0.14709975,-0.0882598499999988,9.8458766
2026-05-02 08:53:05.353,-0.16671305,-0.0980664999999988,9.85568325
2026-05-02 08:53:05.593,-0.16671305,-0.0980664999999988,9.85568325
2026-05-02 08:53:05.845,-0.14709975,-0.0784531999999988,9.8458766
2026-05-02 08:53:06.096,-0.14709975,-0.0784531999999988,9.8458766
2026-05-02 08:53:06.351,-0.16671305,-0.0882598499999988,9.83606995
2026-05-02 08:53:06.592,-0.16671305,-0.0882598499999988,9.83606995
2026-05-02 08:53:06.848,-0.1569064,-0.0980664999999988,9.83606995
2026-05-02 08:53:07.093,-0.1569064,-0.0980664999999988,9.83606995
2026-05-02 08:53:07.349,-0.1569064,-0.0882598499999988,9.8458766
2026-05-02 08:53:07.594,-0.1569064,-0.0882598499999988,9.8458766
2026-05-02 08:53:07.851,-0.16671305,-0.0980664999999988,9.8458766
2026-05-02 08:53:08.098,-0.16671305,-0.0980664999999988,9.8458766
2026-05-02 08:53:08.347,-0.1569064,-0.0980664999999988,9.8458766
2026-05-02 08:53:08.599,-0.1569064,-0.0980664999999988,9.8458766
2026-05-02 08:53:08.842,-0.16671305,-0.0980664999999988,9.8458766
2026-05-02 08:53:09.096,-0.16671305,-0.0980664999999988,9.8458766
2026-05-02 08:53:09.345,-0.1569064,-0.0980664999999988,9.83606995
2026-05-02 08:53:09.596,-0.1569064,-0.0980664999999988,9.83606995
2026-05-02 08:53:09.846,-0.1569064,-0.0882598499999988,9.8458766
2026-05-02 08:53:10.093,-0.1569064,-0.0882598499999988,9.8458766
2026-05-02 08:53:10.345,-0.1569064,-0.0980664999999988,9.8458766
2026-05-02 08:53:10.596,-0.1569064,-0.0980664999999988,9.8458766
2026-05-02 08:53:10.840,-0.1569064,-0.0882598499999988,9.8458766
2026-05-02 08:53:11.093,-0.1569064,-0.0882598499999988,9.8458766
2026-05-02 08:53:11.342,-0.16671305,-0.0882598499999988,9.8458766
2026-05-02 08:53:11.598,-0.16671305,-0.0882598499999988,9.8458766
2026-05-02 08:53:11.854,-0.14709975,-0.0980664999999988,9.83606995
2026-05-02 08:53:12.096,-0.14709975,-0.0980664999999988,9.83606995
2026-05-02 08:53:12.350,-0.16671305,-0.0882598499999988,9.85568325
2026-05-02 08:53:12.596,-0.16671305,-0.0882598499999988,9.85568325
2026-05-02 08:53:12.849,-0.1569064,-0.0980664999999988,9.8458766
2026-05-02 08:53:13.095,-0.1569064,-0.0980664999999988,9.8458766
2026-05-02 08:53:13.351,-0.1569064,-0.0980664999999988,9.83606995
2026-05-02 08:53:13.595,-0.1569064,-0.0980664999999988,9.83606995
2026-05-02 08:53:13.843,-0.1569064,-0.0784531999999988,9.8458766
2026-05-02 08:53:14.093,-0.1569064,-0.0784531999999988,9.8458766
2026-05-02 08:53:14.372,-0.1569064,-0.0980664999999988,9.83606995
2026-05-02 08:53:14.598,-0.1569064,-0.0980664999999988,9.83606995
2026-05-02 08:53:14.848,-0.16671305,-0.0980664999999988,9.8458766
2026-05-02 08:53:15.095,-0.16671305,-0.0980664999999988,9.8458766
2026-05-02 08:53:15.353,-0.14709975,-0.0784531999999988,9.83606995
2026-05-02 08:53:15.593,-0.14709975,-0.0784531999999988,9.83606995
2026-05-02 08:53:15.836,-0.16671305,-0.0980664999999988,9.8458766
2026-05-02 08:53:16.093,-0.16671305,-0.0980664999999988,9.8458766
2026-05-02 08:53:16.350,-0.1569064,-0.0882598499999988,9.8458766
2026-05-02 08:53:16.593,-0.1569064,-0.0882598499999988,9.8458766
2026-05-02 08:53:16.850,-0.16671305,-0.0882598499999988,9.8458766
2026-05-02 08:53:17.096,-0.16671305,-0.0882598499999988,9.8458766
2026-05-02 08:53:17.348,-0.1569064,-0.0980664999999988,9.8458766
2026-05-02 08:53:17.597,-0.1569064,-0.0980664999999988,9.8458766
2026-05-02 08:53:17.842,-0.16671305,-0.0980664999999988,9.8458766
2026-05-02 08:53:18.095,-0.16671305,-0.0980664999999988,9.8458766
2026-05-02 08:53:18.337,-0.1569064,-0.0980664999999988,9.83606995
2026-05-02 08:53:18.595,-0.1569064,-0.0980664999999988,9.83606995
2026-05-02 08:53:18.843,-0.16671305,-0.0882598499999988,9.8458766
2026-05-02 08:53:19.093,-0.16671305,-0.0882598499999988,9.8458766
2026-05-02 08:53:19.348,-0.1569064,-0.0980664999999988,9.8458766
2026-05-02 08:53:19.596,-0.1569064,-0.0980664999999988,9.8458766
2026-05-02 08:53:19.850,-0.1569064,-0.0882598499999988,9.8458766
2026-05-02 08:53:20.094,-0.1569064,-0.0882598499999988,9.8458766
2026-05-02 08:53:20.357,-0.16671305,-0.0784531999999988,9.83606995
2026-05-02 08:53:20.596,-0.16671305,-0.0784531999999988,9.83606995
2026-05-02 08:53:20.851,-0.16671305,-0.1078731499999988,9.85568325
2026-05-02 08:53:21.095,-0.16671305,-0.1078731499999988,9.85568325
2026-05-02 08:53:21.349,-0.1569064,-0.0980664999999988,9.8458766
2026-05-02 08:53:21.596,-0.1569064,-0.0980664999999988,9.8458766
2026-05-02 08:53:21.846,-0.1569064,-0.0784531999999988,9.83606995
2026-05-02 08:53:22.095,-0.1569064,-0.0784531999999988,9.83606995
2026-05-02 08:53:22.356,-0.1569064,-0.0980664999999988,9.8458766
2026-05-02 08:53:22.596,-0.1569064,-0.0980664999999988,9.8458766
2026-05-02 08:53:22.853,-0.16671305,-0.1078731499999988,9.8458766
2026-05-02 08:53:23.097,-0.16671305,-0.1078731499999988,9.8458766
2026-05-02 08:53:23.352,-0.1569064,-0.0784531999999988,9.83606995
2026-05-02 08:53:23.598,-0.1569064,-0.0784531999999988,9.83606995
2026-05-02 08:53:23.850,-0.1569064,-0.0980664999999988,9.8458766
2026-05-02 08:53:24.093,-0.1569064,-0.0980664999999988,9.8458766
2026-05-02 08:53:24.351,-0.16671305,-0.0980664999999988,9.85568325
2026-05-02 08:53:24.596,-0.16671305,-0.0980664999999988,9.85568325
2026-05-02 08:53:24.846,-0.14709975,-0.0882598499999988,9.83606995
2026-05-02 08:53:25.094,-0.14709975,-0.0882598499999988,9.83606995
2026-05-02 08:53:25.351,-0.1569064,-0.0882598499999988,9.8458766
2026-05-02 08:53:25.596,-0.1569064,-0.0882598499999988,9.8458766
2026-05-02 08:53:25.847,-0.1569064,-0.0882598499999988,9.8458766
2026-05-02 08:53:26.094,-0.1569064,-0.0882598499999988,9.8458766
2026-05-02 08:53:26.360,-0.16671305,-0.0980664999999988,9.85568325
2026-05-02 08:53:26.596,-0.16671305,-0.0980664999999988,9.85568325
2026-05-02 08:53:26.846,-0.14709975,-0.0784531999999988,9.83606995
2026-05-02 08:53:27.094,-0.14709975,-0.0784531999999988,9.83606995
2026-05-02 08:53:27.357,-0.16671305,-0.0980664999999988,9.8458766
2026-05-02 08:53:27.594,-0.16671305,-0.0980664999999988,9.8458766
2026-05-02 08:53:27.847,-0.1569064,-0.0882598499999988,9.85568325
2026-05-02 08:53:28.094,-0.1569064,-0.0882598499999988,9.85568325
2026-05-02 08:53:28.350,-0.16671305,-0.0882598499999988,9.8458766
2026-05-02 08:53:28.595,-0.16671305,-0.0882598499999988,9.8458766
2026-05-02 08:53:28.847,-0.1569064,-0.0980664999999988,9.8458766
2026-05-02 08:53:29.092,-0.1569064,-0.0980664999999988,9.8458766
2026-05-02 08:53:29.355,-0.16671305,-0.0882598499999988,9.8458766
2026-05-02 08:53:29.595,-0.16671305,-0.0882598499999988,9.8458766
2026-05-02 08:53:29.843,-0.1569064,-0.0980664999999988,9.83606995
2026-05-02 08:53:30.096,-0.1569064,-0.0980664999999988,9.83606995
2026-05-02 08:53:30.354,-0.1569064,-0.0980664999999988,9.83606995
2026-05-02 08:53:30.592,-0.1569064,-0.0980664999999988,9.83606995
2026-05-02 08:53:30.845,-0.1569064,-0.0882598499999988,9.8458766
2026-05-02 08:53:31.095,-0.1569064,-0.0882598499999988,9.8458766
2026-05-02 08:53:31.356,-0.1569064,-0.0882598499999988,9.8458766
2026-05-02 08:53:31.595,-0.1569064,-0.0882598499999988,9.8458766
2026-05-02 08:53:31.852,-0.1569064,-0.0882598499999988,9.85568325
2026-05-02 08:53:32.095,-0.1569064,-0.0882598499999988,9.85568325
2026-05-02 08:53:32.351,-0.16671305,-0.0980664999999988,9.8458766
2026-05-02 08:53:32.598,-0.16671305,-0.0980664999999988,9.8458766
2026-05-02 08:53:32.845,-0.1569064,-0.0980664999999988,9.83606995
2026-05-02 08:53:33.095,-0.1569064,-0.0980664999999988,9.83606995
2026-05-02 08:53:33.344,-0.1569064,-0.0882598499999988,9.8262633
2026-05-02 08:53:33.595,-0.1569064,-0.0882598499999988,9.8262633
2026-05-02 08:53:33.844,-0.1569064,-0.0882598499999988,9.85568325
2026-05-02 08:53:34.092,-0.1569064,-0.0882598499999988,9.85568325
2026-05-02 08:53:34.353,-0.1569064,-0.0980664999999988,9.85568325
2026-05-02 08:53:34.595,-0.1569064,-0.0980664999999988,9.85568325
2026-05-02 08:53:34.844,-0.16671305,-0.0980664999999988,9.8458766
2026-05-02 08:53:35.092,-0.16671305,-0.0980664999999988,9.8458766
2026-05-02 08:53:35.347,-0.1569064,-0.0882598499999988,9.8262633
2026-05-02 08:53:35.596,-0.1569064,-0.0882598499999988,9.8262633
2026-05-02 08:53:35.843,-0.16671305,-0.0882598499999988,9.85568325
2026-05-02 08:53:36.095,-0.16671305,-0.0882598499999988,9.85568325
2026-05-02 08:53:36.345,-0.16671305,-0.0980664999999988,9.85568325
2026-05-02 08:53:36.596,-0.16671305,-0.0980664999999988,9.85568325
2026-05-02 08:53:36.843,-0.16671305,-0.0882598499999988,9.8458766
2026-05-02 08:53:37.097,-0.16671305,-0.0882598499999988,9.8458766
2026-05-02 08:53:37.355,-0.16671305,-0.0882598499999988,9.8458766
2026-05-02 08:53:37.595,-0.16671305,-0.0882598499999988,9.8458766
2026-05-02 08:53:37.844,-0.1569064,-0.0980664999999988,9.8458766
2026-05-02 08:53:38.095,-0.1569064,-0.0980664999999988,9.8458766
2026-05-02 08:53:38.340,-0.1569064,-0.0882598499999988,9.8458766
2026-05-02 08:53:38.597,-0.1569064,-0.0882598499999988,9.8458766
2026-05-02 08:53:38.845,-0.1569064,-0.0882598499999988,9.8458766
2026-05-02 08:53:39.092,-0.1569064,-0.0882598499999988,9.8458766
2026-05-02 08:53:39.357,-0.1569064,-0.0980664999999988,9.85568325
2026-05-02 08:53:39.595,-0.1569064,-0.0980664999999988,9.85568325
2026-05-02 08:53:39.844,-0.1569064,-0.0882598499999988,9.8458766
2026-05-02 08:53:40.095,-0.1569064,-0.0882598499999988,9.8458766
2026-05-02 08:53:40.352,-0.16671305,-0.0882598499999988,9.8458766
2026-05-02 08:53:40.597,-0.16671305,-0.0882598499999988,9.8458766
2026-05-02 08:53:40.843,-0.1569064,-0.0980664999999988,9.83606995
2026-05-02 08:53:41.098,-0.1569064,-0.0980664999999988,9.83606995
2026-05-02 08:53:41.363,-0.16671305,-0.0882598499999988,9.8458766
2026-05-02 08:53:41.598,-0.16671305,-0.0882598499999988,9.8458766
2026-05-02 08:53:41.844,-0.16671305,-0.0980664999999988,9.8458766
2026-05-02 08:53:42.093,-0.16671305,-0.0980664999999988,9.8458766
2026-05-02 08:53:42.359,-0.1569064,-0.0882598499999988,9.83606995
2026-05-02 08:53:42.599,-0.1569064,-0.0882598499999988,9.83606995
2026-05-02 08:53:42.844,-0.16671305,-0.0784531999999988,9.85568325
2026-05-02 08:53:43.093,-0.16671305,-0.0784531999999988,9.85568325
2026-05-02 08:53:43.343,-0.1569064,-0.1078731499999988,9.8458766
2026-05-02 08:53:43.593,-0.1569064,-0.1078731499999988,9.8458766
2026-05-02 08:53:43.844,-0.16671305,-0.0882598499999988,9.8458766
2026-05-02 08:53:44.092,-0.16671305,-0.0882598499999988,9.8458766
2026-05-02 08:53:44.356,-0.1569064,-0.0882598499999988,9.83606995
2026-05-02 08:53:44.598,-0.1569064,-0.0882598499999988,9.83606995
2026-05-02 08:53:44.848,-0.1569064,-0.0882598499999988,9.85568325
2026-05-02 08:53:45.094,-0.1569064,-0.0882598499999988,9.85568325
2026-05-02 08:53:45.355,-0.16671305,-0.0784531999999988,9.85568325
2026-05-02 08:53:45.597,-0.16671305,-0.0784531999999988,9.85568325
2026-05-02 08:53:45.846,-0.16671305,-0.1078731499999988,9.8458766
2026-05-02 08:53:46.095,-0.16671305,-0.1078731499999988,9.8458766
2026-05-02 08:53:46.368,-0.1569064,-0.0882598499999988,9.83606995
2026-05-02 08:53:46.596,-0.1569064,-0.0882598499999988,9.83606995
2026-05-02 08:53:46.851,-0.1569064,-0.0980664999999988,9.83606995
2026-05-02 08:53:47.095,-0.1569064,-0.0980664999999988,9.83606995
2026-05-02 08:53:47.356,-0.1569064,-0.0882598499999988,9.8458766
2026-05-02 08:53:47.596,-0.1569064,-0.0882598499999988,9.8458766
2026-05-02 08:53:47.854,-0.1569064,-0.0882598499999988,9.8458766
2026-05-02 08:53:48.095,-0.1569064,-0.0882598499999988,9.8458766
2026-05-02 08:53:48.339,-0.1569064,-0.1078731499999988,9.83606995
2026-05-02 08:53:48.594,-0.1569064,-0.1078731499999988,9.83606995
2026-05-02 08:53:48.845,-0.1569064,-0.0784531999999988,9.83606995
2026-05-02 08:53:49.092,-0.1569064,-0.0784531999999988,9.83606995
2026-05-02 08:53:49.345,-0.1569064,-0.0882598499999988,9.8458766
2026-05-02 08:53:49.595,-0.1569064,-0.0882598499999988,9.8458766
2026-05-02 08:53:49.844,-0.1569064,-0.0882598499999988,9.8458766
2026-05-02 08:53:50.094,-0.1569064,-0.0882598499999988,9.8458766
2026-05-02 08:53:50.353,-0.1569064,-0.0882598499999988,9.8458766
2026-05-02 08:53:50.597,-0.1569064,-0.0882598499999988,9.8458766
2026-05-02 08:53:50.841,-0.16671305,-0.0882598499999988,9.8458766
2026-05-02 08:53:51.094,-0.16671305,-0.0882598499999988,9.8458766
2026-05-02 08:53:51.355,-0.1569064,-0.0980664999999988,9.83606995
2026-05-02 08:53:51.596,-0.1569064,-0.0980664999999988,9.83606995
2026-05-02 08:53:51.864,-0.1569064,-0.0882598499999988,9.83606995
2026-05-02 08:53:52.095,-0.1569064,-0.0882598499999988,9.83606995
2026-05-02 08:53:52.354,-0.1569064,-0.0784531999999988,9.83606995
2026-05-02 08:53:52.594,-0.1569064,-0.0784531999999988,9.83606995
2026-05-02 08:53:52.848,-0.16671305,-0.0882598499999988,9.85568325
2026-05-02 08:53:53.092,-0.16671305,-0.0882598499999988,9.85568325
2026-05-02 08:53:53.339,-0.16671305,-0.1078731499999988,9.85568325
2026-05-02 08:53:53.595,-0.16671305,-0.1078731499999988,9.85568325
2026-05-02 08:53:53.842,-0.1569064,-0.0784531999999988,9.8458766
2026-05-02 08:53:54.092,-0.1569064,-0.0784531999999988,9.8458766
2026-05-02 08:53:54.365,-0.16671305,-0.0784531999999988,9.8458766
2026-05-02 08:53:54.595,-0.16671305,-0.0784531999999988,9.8458766
2026-05-02 08:53:54.846,-0.16671305,-0.0980664999999988,9.85568325
2026-05-02 08:53:55.095,-0.16671305,-0.0980664999999988,9.85568325
2026-05-02 08:53:55.359,-0.16671305,-0.0980664999999988,9.8458766
2026-05-02 08:53:55.595,-0.16671305,-0.0980664999999988,9.8458766
2026-05-02 08:53:55.844,-0.1569064,-0.0882598499999988,9.83606995
2026-05-02 08:53:56.098,-0.1569064,-0.0882598499999988,9.83606995
2026-05-02 08:53:56.349,-0.16671305,-0.0882598499999988,9.8458766
2026-05-02 08:53:56.596,-0.16671305,-0.0882598499999988,9.8458766
2026-05-02 08:53:56.853,-0.1569064,-0.1078731499999988,9.8458766
2026-05-02 08:53:57.093,-0.1569064,-0.1078731499999988,9.8458766
2026-05-02 08:53:57.350,-0.16671305,-0.0882598499999988,9.8458766
2026-05-02 08:53:57.594,-0.16671305,-0.0882598499999988,9.8458766
2026-05-02 08:53:57.847,-0.14709975,-0.0784531999999988,9.83606995
2026-05-02 08:53:58.092,-0.14709975,-0.0784531999999988,9.83606995
2026-05-02 08:53:58.346,-0.1569064,-0.0882598499999988,9.8458766
2026-05-02 08:53:58.593,-0.1569064,-0.0882598499999988,9.8458766
2026-05-02 08:53:58.843,-0.16671305,-0.0882598499999988,9.85568325
2026-05-02 08:53:59.093,-0.16671305,-0.0882598499999988,9.85568325
2026-05-02 08:53:59.344,-0.16671305,-0.0980664999999988,9.8458766
2026-05-02 08:53:59.595,-0.16671305,-0.0980664999999988,9.8458766
2026-05-02 08:53:59.844,-0.1569064,-0.0882598499999988,9.83606995
2026-05-02 08:54:00.091,-0.1569064,-0.0882598499999988,9.83606995
2026-05-02 08:54:00.360,-0.1569064,-0.0882598499999988,9.83606995
2026-05-02 08:54:00.596,-0.1569064,-0.0882598499999988,9.83606995
2026-05-02 08:54:00.847,-0.1569064,-0.0882598499999988,9.8458766
2026-05-02 08:54:01.094,-0.1569064,-0.0882598499999988,9.8458766
2026-05-02 08:54:01.338,-0.1765197,-0.0882598499999988,9.85568325
2026-05-02 08:54:01.595,-0.1765197,-0.0882598499999988,9.85568325
2026-05-02 08:54:01.864,-0.1569064,-0.0980664999999988,9.8458766
2026-05-02 08:54:02.094,-0.1569064,-0.0980664999999988,9.8458766
2026-05-02 08:54:02.354,-0.16671305,-0.0882598499999988,9.8458766
2026-05-02 08:54:02.597,-0.16671305,-0.0882598499999988,9.8458766
2026-05-02 08:54:02.853,-0.1569064,-0.0980664999999988,9.8458766
2026-05-02 08:54:03.094,-0.1569064,-0.0980664999999988,9.8458766
2026-05-02 08:54:03.353,-0.16671305,-0.0882598499999988,9.8458766
2026-05-02 08:54:03.593,-0.16671305,-0.0882598499999988,9.8458766
2026-05-02 08:54:03.845,-0.16671305,-0.0882598499999988,9.8458766
2026-05-02 08:54:04.093,-0.16671305,-0.0882598499999988,9.8458766
2026-05-02 08:54:04.360,-0.16671305,-0.0882598499999988,9.85568325
2026-05-02 08:54:04.595,-0.16671305,-0.0882598499999988,9.85568325
2026-05-02 08:54:04.855,-0.1569064,-0.0980664999999988,9.83606995
2026-05-02 08:54:05.095,-0.1569064,-0.0980664999999988,9.83606995
2026-05-02 08:54:05.356,-0.16671305,-0.0882598499999988,9.83606995
2026-05-02 08:54:05.596,-0.16671305,-0.0882598499999988,9.83606995
2026-05-02 08:54:05.844,-0.16671305,-0.0882598499999988,9.8458766
2026-05-02 08:54:06.094,-0.16671305,-0.0882598499999988,9.8458766
2026-05-02 08:54:06.357,-0.1569064,-0.0980664999999988,9.8458766
2026-05-02 08:54:06.595,-0.1569064,-0.0980664999999988,9.8458766
2026-05-02 08:54:06.859,-0.16671305,-0.0980664999999988,9.8458766
2026-05-02 08:54:07.094,-0.16671305,-0.0980664999999988,9.8458766
2026-05-02 08:54:07.360,-0.1569064,-0.0882598499999988,9.85568325
2026-05-02 08:54:07.595,-0.1569064,-0.0882598499999988,9.85568325
2026-05-02 08:54:07.853,-0.16671305,-0.0882598499999988,9.8458766
2026-05-02 08:54:08.095,-0.16671305,-0.0882598499999988,9.8458766
2026-05-02 08:54:08.353,-0.1569064,-0.0980664999999988,9.8458766
2026-05-02 08:54:08.596,-0.1569064,-0.0980664999999988,9.8458766
2026-05-02 08:54:08.844,-0.16671305,-0.0882598499999988,9.8458766
2026-05-02 08:54:09.092,-0.16671305,-0.0882598499999988,9.8458766
2026-05-02 08:54:09.354,-0.1569064,-0.0882598499999988,9.83606995
2026-05-02 08:54:09.595,-0.1569064,-0.0882598499999988,9.83606995
2026-05-02 08:54:09.844,-0.16671305,-0.0882598499999988,9.8458766
2026-05-02 08:54:10.096,-0.16671305,-0.0882598499999988,9.8458766
2026-05-02 08:54:10.355,-0.1569064,-0.0980664999999988,9.8458766
2026-05-02 08:54:10.597,-0.1569064,-0.0980664999999988,9.8458766
2026-05-02 08:54:10.847,-0.16671305,-0.0882598499999988,9.8458766
2026-05-02 08:54:11.094,-0.16671305,-0.0882598499999988,9.8458766
2026-05-02 08:54:11.353,-0.1569064,-0.0882598499999988,9.83606995
2026-05-02 08:54:11.592,-0.1569064,-0.0882598499999988,9.83606995
2026-05-02 08:54:11.843,-0.1569064,-0.0882598499999988,9.83606995
2026-05-02 08:54:12.094,-0.1569064,-0.0882598499999988,9.83606995
2026-05-02 08:54:12.342,-0.16671305,-0.0784531999999988,9.8458766
2026-05-02 08:54:12.594,-0.16671305,-0.0784531999999988,9.8458766
2026-05-02 08:54:12.841,-0.1569064,-0.0980664999999988,9.8458766
2026-05-02 08:54:13.093,-0.1569064,-0.0980664999999988,9.8458766
2026-05-02 08:54:13.345,-0.1569064,-0.0882598499999988,9.85568325
2026-05-02 08:54:13.593,-0.1569064,-0.0882598499999988,9.85568325
2026-05-02 08:54:13.846,-0.1569064,-0.0784531999999988,9.8458766
2026-05-02 08:54:14.092,-0.1569064,-0.0784531999999988,9.8458766
2026-05-02 08:54:14.359,-0.1569064,-0.0980664999999988,9.83606995
2026-05-02 08:54:14.595,-0.1569064,-0.0980664999999988,9.83606995
2026-05-02 08:54:14.851,-0.1569064,-0.0882598499999988,9.83606995
2026-05-02 08:54:15.093,-0.1569064,-0.0882598499999988,9.83606995
2026-05-02 08:54:15.356,-0.16671305,-0.0882598499999988,9.85568325
2026-05-02 08:54:15.595,-0.16671305,-0.0882598499999988,9.85568325
2026-05-02 08:54:15.851,-0.1569064,-0.0980664999999988,9.8458766
2026-05-02 08:54:16.094,-0.1569064,-0.0980664999999988,9.8458766
2026-05-02 08:54:16.350,-0.1569064,-0.0980664999999988,9.83606995
2026-05-02 08:54:16.591,-0.1569064,-0.0980664999999988,9.83606995
2026-05-02 08:54:16.859,-0.16671305,-0.0784531999999988,9.8458766
2026-05-02 08:54:17.095,-0.16671305,-0.0784531999999988,9.8458766
2026-05-02 08:54:17.358,-0.1569064,-0.0882598499999988,9.85568325
2026-05-02 08:54:17.597,-0.1569064,-0.0882598499999988,9.85568325
2026-05-02 08:54:17.848,-0.14709975,-0.0980664999999988,9.83606995
2026-05-02 08:54:18.094,-0.14709975,-0.0980664999999988,9.83606995
2026-05-02 08:54:18.343,-0.16671305,-0.0784531999999988,9.8458766
2026-05-02 08:54:18.594,-0.16671305,-0.0784531999999988,9.8458766
2026-05-02 08:54:18.844,-0.1569064,-0.0882598499999988,9.8458766
2026-05-02 08:54:19.091,-0.1569064,-0.0882598499999988,9.8458766
2026-05-02 08:54:19.359,-0.1569064,-0.0980664999999988,9.83606995
2026-05-02 08:54:19.594,-0.1569064,-0.0980664999999988,9.83606995
2026-05-02 08:54:19.844,-0.16671305,-0.0882598499999988,9.8458766
2026-05-02 08:54:20.093,-0.16671305,-0.0882598499999988,9.8458766
2026-05-02 08:54:20.355,-0.16671305,-0.0882598499999988,9.8458766
2026-05-02 08:54:20.594,-0.16671305,-0.0882598499999988,9.8458766
2026-05-02 08:54:20.848,-0.14709975,-0.0980664999999988,9.8458766
2026-05-02 08:54:21.094,-0.14709975,-0.0980664999999988,9.8458766
2026-05-02 08:54:21.364,-0.16671305,-0.0882598499999988,9.8458766
2026-05-02 08:54:21.594,-0.16671305,-0.0882598499999988,9.8458766
2026-05-02 08:54:21.863,-0.16671305,-0.0882598499999988,9.85568325
2026-05-02 08:54:22.094,-0.16671305,-0.0882598499999988,9.85568325
2026-05-02 08:54:22.359,-0.16671305,-0.0980664999999988,9.85568325
2026-05-02 08:54:22.595,-0.16671305,-0.0980664999999988,9.85568325
2026-05-02 08:54:22.846,-0.1569064,-0.0980664999999988,9.83606995
2026-05-02 08:54:23.094,-0.1569064,-0.0980664999999988,9.83606995
2026-05-02 08:54:23.352,-0.16671305,-0.0882598499999988,9.83606995
2026-05-02 08:54:23.594,-0.16671305,-0.0882598499999988,9.83606995
2026-05-02 08:54:23.844,-0.1569064,-0.0784531999999988,9.8458766
2026-05-02 08:54:24.091,-0.1569064,-0.0784531999999988,9.8458766
2026-05-02 08:54:24.359,-0.1569064,-0.0882598499999988,9.85568325
2026-05-02 08:54:24.595,-0.1569064,-0.0882598499999988,9.85568325
2026-05-02 08:54:24.844,-0.16671305,-0.0980664999999988,9.8458766
2026-05-02 08:54:25.094,-0.16671305,-0.0980664999999988,9.8458766
2026-05-02 08:54:25.356,-0.1569064,-0.0882598499999988,9.83606995
2026-05-02 08:54:25.594,-0.1569064,-0.0882598499999988,9.83606995
2026-05-02 08:54:25.847,-0.1569064,-0.0882598499999988,9.83606995
2026-05-02 08:54:26.091,-0.1569064,-0.0882598499999988,9.83606995
2026-05-02 08:54:26.361,-0.16671305,-0.0882598499999988,9.85568325
2026-05-02 08:54:26.596,-0.16671305,-0.0882598499999988,9.85568325
2026-05-02 08:54:26.842,-0.1569064,-0.0980664999999988,9.85568325
2026-05-02 08:54:27.094,-0.1569064,-0.0980664999999988,9.85568325
2026-05-02 08:54:27.342,-0.16671305,-0.0882598499999988,9.8458766
2026-05-02 08:54:27.594,-0.16671305,-0.0882598499999988,9.8458766
2026-05-02 08:54:27.856,-0.1569064,-0.0882598499999988,9.8458766
2026-05-02 08:54:28.095,-0.1569064,-0.0882598499999988,9.8458766
2026-05-02 08:54:28.342,-0.16671305,-0.0882598499999988,9.8458766
2026-05-02 08:54:28.594,-0.16671305,-0.0882598499999988,9.8458766
2026-05-02 08:54:28.846,-0.1569064,-0.0980664999999988,9.83606995
2026-05-02 08:54:29.092,-0.1569064,-0.0980664999999988,9.83606995
2026-05-02 08:54:29.366,-0.16671305,-0.0882598499999988,9.8458766
2026-05-02 08:54:29.595,-0.16671305,-0.0882598499999988,9.8458766
2026-05-02 08:54:29.856,-0.1569064,-0.0882598499999988,9.8458766
2026-05-02 08:54:30.094,-0.1569064,-0.0882598499999988,9.8458766
2026-05-02 08:54:30.358,-0.1569064,-0.0980664999999988,9.83606995
2026-05-02 08:54:30.594,-0.1569064,-0.0980664999999988,9.83606995
2026-05-02 08:54:30.848,-0.16671305,-0.0784531999999988,9.8458766
2026-05-02 08:54:31.094,-0.16671305,-0.0784531999999988,9.8458766
2026-05-02 08:54:31.361,-0.1569064,-0.0882598499999988,9.8458766
2026-05-02 08:54:31.592,-0.1569064,-0.0882598499999988,9.8458766
2026-05-02 08:54:31.847,-0.16671305,-0.0882598499999988,9.8458766
2026-05-02 08:54:32.095,-0.16671305,-0.0882598499999988,9.8458766
2026-05-02 08:54:32.366,-0.1569064,-0.0980664999999988,9.8458766
2026-05-02 08:54:32.596,-0.1569064,-0.0980664999999988,9.8458766
2026-05-02 08:54:32.855,-0.1569064,-0.0980664999999988,9.83606995
2026-05-02 08:54:33.094,-0.1569064,-0.0980664999999988,9.83606995
2026-05-02 08:54:33.343,-0.1569064,-0.0882598499999988,9.8458766
2026-05-02 08:54:33.594,-0.1569064,-0.0882598499999988,9.8458766
2026-05-02 08:54:33.847,-0.1569064,-0.0980664999999988,9.85568325
2026-05-02 08:54:34.090,-0.1569064,-0.0980664999999988,9.85568325
2026-05-02 08:54:34.357,-0.16671305,-0.0980664999999988,9.85568325
2026-05-02 08:54:34.593,-0.16671305,-0.0980664999999988,9.85568325
2026-05-02 08:54:34.853,-0.1569064,-0.0882598499999988,9.8458766
2026-05-02 08:54:35.095,-0.1569064,-0.0882598499999988,9.8458766
2026-05-02 08:54:35.344,-0.1569064,-0.0980664999999988,9.83606995
2026-05-02 08:54:35.593,-0.1569064,-0.0980664999999988,9.83606995
2026-05-02 08:54:35.845,-0.1569064,-0.0882598499999988,9.8458766
2026-05-02 08:54:36.093,-0.1569064,-0.0882598499999988,9.8458766
2026-05-02 08:54:36.370,-0.1569064,-0.0882598499999988,9.8458766
2026-05-02 08:54:36.594,-0.1569064,-0.0882598499999988,9.8458766
2026-05-02 08:54:36.859,-0.1569064,-0.0882598499999988,9.83606995
2026-05-02 08:54:37.103,-0.1569064,-0.0882598499999988,9.83606995
2026-05-02 08:54:37.356,-0.16671305,-0.0980664999999988,9.8458766
2026-05-02 08:54:37.594,-0.16671305,-0.0980664999999988,9.8458766
2026-05-02 08:54:37.844,-0.16671305,-0.0980664999999988,9.8458766
2026-05-02 08:54:38.094,-0.16671305,-0.0980664999999988,9.8458766
2026-05-02 08:54:38.343,-0.1569064,-0.0882598499999988,9.8458766
2026-05-02 08:54:38.594,-0.1569064,-0.0882598499999988,9.8458766
2026-05-02 08:54:38.848,-0.16671305,-0.0980664999999988,9.8458766
2026-05-02 08:54:39.092,-0.16671305,-0.0980664999999988,9.8458766
2026-05-02 08:54:39.355,-0.16671305,-0.0882598499999988,9.8458766
2026-05-02 08:54:39.593,-0.16671305,-0.0882598499999988,9.8458766
2026-05-02 08:54:39.845,-0.1569064,-0.0980664999999988,9.8262633
2026-05-02 08:54:40.095,-0.1569064,-0.0980664999999988,9.8262633
2026-05-02 08:54:40.364,-0.1569064,-0.0980664999999988,9.83606995
2026-05-02 08:54:40.591,-0.1569064,-0.0980664999999988,9.83606995
2026-05-02 08:54:40.849,-0.16671305,-0.0882598499999988,9.8458766
2026-05-02 08:54:41.093,-0.16671305,-0.0882598499999988,9.8458766
2026-05-02 08:54:41.360,-0.1569064,-0.0882598499999988,9.8458766
2026-05-02 08:54:41.591,-0.1569064,-0.0882598499999988,9.8458766
2026-05-02 08:54:41.860,-0.1569064,-0.0882598499999988,9.85568325
2026-05-02 08:54:42.093,-0.1569064,-0.0882598499999988,9.85568325
2026-05-02 08:54:42.360,-0.16671305,-0.0882598499999988,9.85568325
2026-05-02 08:54:42.593,-0.16671305,-0.0882598499999988,9.85568325
2026-05-02 08:54:42.853,-0.24516625,-0.1569063999999988,9.80665
2026-05-02 08:54:43.094,-0.24516625,-0.1569063999999988,9.80665
2026-05-02 08:54:43.354,-0.0980665,-0.0686465499999988,9.79684335
2026-05-02 08:54:43.594,-0.0980665,-0.0686465499999988,9.79684335
2026-05-02 08:54:43.848,-0.30400615,-0.2647795499999988,9.81645665
2026-05-02 08:54:44.091,-0.30400615,-0.2647795499999988,9.81645665
2026-05-02 08:54:44.359,-0.1176798,0.10787315000000121,9.79684335
2026-05-02 08:54:44.599,-0.1176798,0.10787315000000121,9.79684335
2026-05-02 08:54:44.852,-0.22555295,-0.18632634999999878,9.8851032
2026-05-02 08:54:45.093,-0.22555295,-0.18632634999999878,9.8851032
2026-05-02 08:54:45.356,-0.14709975,-0.16671304999999878,9.81645665
2026-05-02 08:54:45.590,-0.14709975,-0.16671304999999878,9.81645665
2026-05-02 08:54:45.840,-0.14709975,0.10787315000000121,9.83606995
2026-05-02 08:54:46.095,-0.14709975,0.10787315000000121,9.83606995
2026-05-02 08:54:46.344,-0.1765197,-0.0392265999999988,9.80665
2026-05-02 08:54:46.591,-0.1765197,-0.0392265999999988,9.80665
2026-05-02 08:54:46.849,-0.1176798,-0.1176797999999988,9.8262633
2026-05-02 08:54:47.094,-0.1176798,-0.1176797999999988,9.8262633
2026-05-02 08:54:47.372,0.26477955,-0.0980664999999988,9.81645665
2026-05-02 08:54:47.594,0.26477955,-0.0980664999999988,9.81645665
2026-05-02 08:54:47.845,0.0,-0.1372930999999988,9.8654899
2026-05-02 08:54:48.094,0.0,-0.1372930999999988,9.8654899
2026-05-02 08:54:48.369,0.06864655,-0.1470997499999988,9.79684335
2026-05-02 08:54:48.596,0.06864655,-0.1470997499999988,9.79684335
2026-05-02 08:54:48.860,-0.00980665,-0.029419949999998793,9.8654899
2026-05-02 08:54:49.092,-0.00980665,-0.029419949999998793,9.8654899
2026-05-02 08:54:49.359,-0.02941995,-0.1372930999999988,9.8654899
2026-05-02 08:54:49.594,-0.02941995,-0.1372930999999988,9.8654899
2026-05-02 08:54:49.849,-0.40207265000000003,-0.1470997499999988,9.7674234
2026-05-02 08:54:50.097,-0.40207265000000003,-0.1470997499999988,9.7674234
2026-05-02 08:54:50.374,-0.73549875,-0.11767979999999884,9.5909037
2026-05-02 08:54:50.590,-0.73549875,-0.11767979999999884,9.5909037
2026-05-02 08:54:50.847,-0.784532,-0.1078731499999988,9.81645665
2026-05-02 08:54:51.101,-0.784532,-0.1078731499999988,9.81645665
2026-05-02 08:54:51.378,-0.4118793,-0.0882598499999988,9.83606995
2026-05-02 08:54:51.592,-0.4118793,-0.0882598499999988,9.83606995
2026-05-02 08:54:51.850,-0.392266,-0.07845319999999878,9.9439431
2026-05-02 08:54:52.098,-0.392266,-0.07845319999999878,9.9439431
2026-05-02 08:54:52.359,0.1372931,-0.0980664999999988,9.77723005
2026-05-02 08:54:52.593,0.1372931,-0.0980664999999988,9.77723005
2026-05-02 08:54:52.843,-0.30400615,-0.2647795499999988,9.79684335
2026-05-02 08:54:53.094,-0.30400615,-0.2647795499999988,9.79684335
2026-05-02 08:54:53.348,0.0,-0.08825984999999882,9.7281968
2026-05-02 08:54:53.594,0.0,-0.08825984999999882,9.7281968
2026-05-02 08:54:53.842,-0.24516625,-0.17651969999999878,9.8851032
2026-05-02 08:54:54.091,-0.24516625,-0.17651969999999878,9.8851032
2026-05-02 08:54:54.359,-0.1569064,-0.08825984999999878,9.9047165
2026-05-02 08:54:54.597,-0.1569064,-0.08825984999999878,9.9047165
2026-05-02 08:54:54.842,-0.2353596,-0.1470997499999988,9.87529655
2026-05-02 08:54:55.094,-0.2353596,-0.1470997499999988,9.87529655
2026-05-02 08:54:55.364,-0.2353596,-0.0980664999999988,9.8458766
2026-05-02 08:54:55.591,-0.2353596,-0.0980664999999988,9.8458766
2026-05-02 08:54:55.854,-0.2549729,-0.1470997499999988,9.80665
2026-05-02 08:54:56.092,-0.2549729,-0.1470997499999988,9.80665
2026-05-02 08:54:56.362,-0.2745862,-0.1667130499999988,9.79684335
2026-05-02 08:54:56.590,-0.2745862,-0.1667130499999988,9.79684335
2026-05-02 08:54:56.846,-0.2745862,-0.1274864499999988,9.8262633
2026-05-02 08:54:57.093,-0.2745862,-0.1274864499999988,9.8262633
2026-05-02 08:54:57.367,-0.2745862,-0.17651969999999878,9.87529655
2026-05-02 08:54:57.592,-0.2745862,-0.17651969999999878,9.87529655
2026-05-02 08:54:57.842,-0.18632635,0.0294199500000012,9.8262633
2026-05-02 08:54:58.093,-0.18632635,0.0294199500000012,9.8262633
2026-05-02 08:54:58.345,-0.2157463,-0.0882598499999988,9.8262633
2026-05-02 08:54:58.592,-0.2157463,-0.0882598499999988,9.8262633
2026-05-02 08:54:58.848,-0.14709975,-0.0686465499999988,9.8458766
2026-05-02 08:54:59.090,-0.14709975,-0.0686465499999988,9.8458766
2026-05-02 08:54:59.359,-0.196133,-0.0686465499999988,9.87529655
2026-05-02 08:54:59.593,-0.196133,-0.0686465499999988,9.87529655
2026-05-02 08:54:59.848,-0.1372931,-0.1274864499999988,9.81645665
2026-05-02 08:55:00.092,-0.1372931,-0.1274864499999988,9.81645665
2026-05-02 08:55:00.362,-0.196133,-0.04903324999999879,9.8654899
2026-05-02 08:55:00.595,-0.196133,-0.04903324999999879,9.8654899
2026-05-02 08:55:00.843,-0.10787315,-0.1176797999999988,9.79684335
2026-05-02 08:55:01.092,-0.10787315,-0.1176797999999988,9.79684335
2026-05-02 08:55:01.358,-0.20593965,-0.0784531999999988,9.8851032
2026-05-02 08:55:01.590,-0.20593965,-0.0784531999999988,9.8851032
2026-05-02 08:55:01.849,-0.12748645,-0.0784531999999988,9.83606995
2026-05-02 08:55:02.093,-0.12748645,-0.0784531999999988,9.83606995
2026-05-02 08:55:02.350,-0.16671305,-0.1176797999999988,9.85568325
2026-05-02 08:55:02.593,-0.16671305,-0.1176797999999988,9.85568325
2026-05-02 08:55:02.840,-0.1569064,-0.0784531999999988,9.8458766
2026-05-02 08:55:03.092,-0.1569064,-0.0784531999999988,9.8458766
2026-05-02 08:55:03.344,-0.1569064,-0.0882598499999988,9.83606995
2026-05-02 08:55:03.593,-0.1569064,-0.0882598499999988,9.83606995
2026-05-02 08:55:03.846,-0.16671305,-0.0882598499999988,9.8458766
2026-05-02 08:55:04.090,-0.16671305,-0.0882598499999988,9.8458766
2026-05-02 08:55:04.343,-0.14709975,-0.0980664999999988,9.83606995
2026-05-02 08:55:04.597,-0.14709975,-0.0980664999999988,9.83606995
2026-05-02 08:55:04.847,-0.16671305,-0.0882598499999988,9.85568325
2026-05-02 08:55:05.092,-0.16671305,-0.0882598499999988,9.85568325
2026-05-02 08:55:05.360,-0.14709975,-0.0882598499999988,9.8458766
2026-05-02 08:55:05.590,-0.14709975,-0.0882598499999988,9.8458766
2026-05-02 08:55:05.847,-0.1569064,-0.0980664999999988,9.83606995
2026-05-02 08:55:06.093,-0.1569064,-0.0980664999999988,9.83606995
2026-05-02 08:55:06.360,-0.1569064,-0.0784531999999988,9.8458766
2026-05-02 08:55:06.591,-0.1569064,-0.0784531999999988,9.8458766
2026-05-02 08:55:06.848,-0.1569064,-0.1176797999999988,9.83606995
2026-05-02 08:55:07.092,-0.1569064,-0.1176797999999988,9.83606995
2026-05-02 08:55:07.361,-0.16671305,-0.0784531999999988,9.8654899
2026-05-02 08:55:07.593,-0.16671305,-0.0784531999999988,9.8654899
2026-05-02 08:55:07.843,-0.14709975,-0.0980664999999988,9.8458766
2026-05-02 08:55:08.092,-0.14709975,-0.0980664999999988,9.8458766
2026-05-02 08:55:08.340,-0.16671305,-0.0980664999999988,9.8458766
2026-05-02 08:55:08.593,-0.16671305,-0.0980664999999988,9.8458766
2026-05-02 08:55:08.841,-0.1569064,-0.0784531999999988,9.8458766
2026-05-02 08:55:09.090,-0.1569064,-0.0784531999999988,9.8458766
2026-05-02 08:55:09.357,-0.1569064,-0.1176797999999988,9.83606995
2026-05-02 08:55:09.593,-0.1569064,-0.1176797999999988,9.83606995
2026-05-02 08:55:09.841,-0.16671305,-0.0882598499999988,9.85568325
2026-05-02 08:55:10.092,-0.16671305,-0.0882598499999988,9.85568325
2026-05-02 08:55:10.369,-0.14709975,-0.0882598499999988,9.8458766
2026-05-02 08:55:10.594,-0.14709975,-0.0882598499999988,9.8458766
2026-05-02 08:55:10.847,-0.16671305,-0.0980664999999988,9.8458766
2026-05-02 08:55:11.093,-0.16671305,-0.0980664999999988,9.8458766
2026-05-02 08:55:11.360,-0.14709975,-0.0882598499999988,9.83606995
2026-05-02 08:55:11.595,-0.14709975,-0.0882598499999988,9.83606995
2026-05-02 08:55:11.855,-0.1569064,-0.0980664999999988,9.8458766
2026-05-02 08:55:12.093,-0.1569064,-0.0980664999999988,9.8458766
2026-05-02 08:55:12.357,-0.1569064,-0.0882598499999988,9.85568325
2026-05-02 08:55:12.592,-0.1569064,-0.0882598499999988,9.85568325
2026-05-02 08:55:12.846,-0.1569064,-0.0980664999999988,9.85568325
2026-05-02 08:55:13.093,-0.1569064,-0.0980664999999988,9.85568325
2026-05-02 08:55:13.341,-0.1569064,-0.0882598499999988,9.8458766
2026-05-02 08:55:13.593,-0.1569064,-0.0882598499999988,9.8458766
2026-05-02 08:55:13.850,-0.16671305,-0.0980664999999988,9.8458766
2026-05-02 08:55:14.091,-0.16671305,-0.0980664999999988,9.8458766
2026-05-02 08:55:14.358,-0.16671305,-0.0980664999999988,9.8458766
2026-05-02 08:55:14.593,-0.16671305,-0.0980664999999988,9.8458766
2026-05-02 08:55:14.844,-0.1569064,-0.0882598499999988,9.8458766
2026-05-02 08:55:15.094,-0.1569064,-0.0882598499999988,9.8458766
2026-05-02 08:55:15.349,-0.16671305,-0.0980664999999988,9.8458766
2026-05-02 08:55:15.590,-0.16671305,-0.0980664999999988,9.8458766
2026-05-02 08:55:15.851,-0.14709975,-0.0882598499999988,9.83606995
2026-05-02 08:55:16.093,-0.14709975,-0.0882598499999988,9.83606995
2026-05-02 08:55:16.361,-0.16671305,-0.0980664999999988,9.85568325
2026-05-02 08:55:16.591,-0.16671305,-0.0980664999999988,9.85568325
2026-05-02 08:55:16.847,-0.1569064,-0.0882598499999988,9.85568325
2026-05-02 08:55:17.092,-0.1569064,-0.0882598499999988,9.85568325
2026-05-02 08:55:17.352,-0.1569064,-0.0784531999999988,9.8458766
2026-05-02 08:55:17.592,-0.1569064,-0.0784531999999988,9.8458766
2026-05-02 08:55:17.851,-0.14709975,-0.0882598499999988,9.8262633
2026-05-02 08:55:18.092,-0.14709975,-0.0882598499999988,9.8262633
2026-05-02 08:55:18.348,-0.1569064,-0.0882598499999988,9.8458766
2026-05-02 08:55:18.592,-0.1569064,-0.0882598499999988,9.8458766
2026-05-02 08:55:18.846,-0.16671305,-0.0980664999999988,9.8654899
2026-05-02 08:55:19.089,-0.16671305,-0.0980664999999988,9.8654899
2026-05-02 08:55:19.352,-0.14709975,-0.0980664999999988,9.8458766
2026-05-02 08:55:19.592,-0.14709975,-0.0980664999999988,9.8458766
2026-05-02 08:55:19.850,-0.1569064,-0.0980664999999988,9.8458766
2026-05-02 08:55:20.093,-0.1569064,-0.0980664999999988,9.8458766
2026-05-02 08:55:20.356,-0.1569064,-0.0882598499999988,9.83606995
2026-05-02 08:55:20.592,-0.1569064,-0.0882598499999988,9.83606995
2026-05-02 08:55:20.846,-0.16671305,-0.0980664999999988,9.85568325
2026-05-02 08:55:21.092,-0.16671305,-0.0980664999999988,9.85568325
2026-05-02 08:55:21.342,-0.1569064,-0.0980664999999988,9.8458766
2026-05-02 08:55:21.592,-0.1569064,-0.0980664999999988,9.8458766
2026-05-02 08:55:21.842,-0.16671305,-0.0882598499999988,9.85568325
2026-05-02 08:55:22.092,-0.16671305,-0.0882598499999988,9.85568325
2026-05-02 08:55:22.355,-0.1569064,-0.0882598499999988,9.8458766
2026-05-02 08:55:22.592,-0.1569064,-0.0882598499999988,9.8458766
2026-05-02 08:55:22.843,-0.1569064,-0.0882598499999988,9.83606995
2026-05-02 08:55:23.092,-0.1569064,-0.0882598499999988,9.83606995
2026-05-02 08:55:23.344,-0.16671305,-0.0882598499999988,9.8458766
2026-05-02 08:55:23.592,-0.16671305,-0.0882598499999988,9.8458766
2026-05-02 08:55:23.844,-0.16671305,-0.0980664999999988,9.85568325
2026-05-02 08:55:24.095,-0.16671305,-0.0980664999999988,9.85568325
2026-05-02 08:55:24.361,-0.1569064,-0.0980664999999988,9.8458766
2026-05-02 08:55:24.593,-0.1569064,-0.0980664999999988,9.8458766
2026-05-02 08:55:24.853,-0.16671305,-0.0980664999999988,9.8458766
2026-05-02 08:55:25.092,-0.16671305,-0.0980664999999988,9.8458766
2026-05-02 08:55:25.357,-0.1569064,-0.0882598499999988,9.83606995
2026-05-02 08:55:25.593,-0.1569064,-0.0882598499999988,9.83606995
2026-05-02 08:55:25.843,-0.1569064,-0.0882598499999988,9.8458766
2026-05-02 08:55:26.091,-0.1569064,-0.0882598499999988,9.8458766
2026-05-02 08:55:26.359,-0.1569064,-0.0980664999999988,9.8458766
2026-05-02 08:55:26.591,-0.1569064,-0.0980664999999988,9.8458766
2026-05-02 08:55:26.840,-0.1569064,-0.0882598499999988,9.8458766
2026-05-02 08:55:27.092,-0.1569064,-0.0882598499999988,9.8458766
2026-05-02 08:55:27.356,-0.16671305,-0.0980664999999988,9.8458766
2026-05-02 08:55:27.593,-0.16671305,-0.0980664999999988,9.8458766
2026-05-02 08:55:27.847,-0.1569064,-0.0882598499999988,9.8458766
2026-05-02 08:55:28.092,-0.1569064,-0.0882598499999988,9.8458766
2026-05-02 08:55:28.346,-0.16671305,-0.0882598499999988,9.85568325
2026-05-02 08:55:28.593,-0.16671305,-0.0882598499999988,9.85568325
2026-05-02 08:55:28.845,-0.1569064,-0.0980664999999988,9.8458766
2026-05-02 08:55:29.089,-0.1569064,-0.0980664999999988,9.8458766
2026-05-02 08:55:29.356,-0.16671305,-0.0980664999999988,9.83606995
2026-05-02 08:55:29.592,-0.16671305,-0.0980664999999988,9.83606995
2026-05-02 08:55:29.842,-0.1569064,-0.0882598499999988,9.83606995
2026-05-02 08:55:30.092,-0.1569064,-0.0882598499999988,9.83606995
2026-05-02 08:55:30.359,-0.1569064,-0.0882598499999988,9.8458766
2026-05-02 08:55:30.592,-0.1569064,-0.0882598499999988,9.8458766
2026-05-02 08:55:30.842,-0.1569064,-0.0980664999999988,9.8458766
2026-05-02 08:55:31.092,-0.1569064,-0.0980664999999988,9.8458766
2026-05-02 08:55:31.360,-0.16671305,-0.0882598499999988,9.85568325
2026-05-02 08:55:31.593,-0.16671305,-0.0882598499999988,9.85568325
2026-05-02 08:55:31.850,-0.1569064,-0.0882598499999988,9.83606995
2026-05-02 08:55:32.093,-0.1569064,-0.0882598499999988,9.83606995
2026-05-02 08:55:32.365,-0.1569064,-0.0882598499999988,9.8458766
2026-05-02 08:55:32.592,-0.1569064,-0.0882598499999988,9.8458766
2026-05-02 08:55:32.845,-0.16671305,-0.0980664999999988,9.8458766
2026-05-02 08:55:33.092,-0.16671305,-0.0980664999999988,9.8458766
2026-05-02 08:55:33.345,-0.1569064,-0.0882598499999988,9.8458766
2026-05-02 08:55:33.590,-0.1569064,-0.0882598499999988,9.8458766
2026-05-02 08:55:33.837,-0.16671305,-0.0980664999999988,9.85568325
2026-05-02 08:55:34.092,-0.16671305,-0.0980664999999988,9.85568325
2026-05-02 08:55:34.358,-0.14709975,-0.0882598499999988,9.83606995
2026-05-02 08:55:34.589,-0.14709975,-0.0882598499999988,9.83606995
2026-05-02 08:55:34.842,-0.16671305,-0.0882598499999988,9.8458766
2026-05-02 08:55:35.092,-0.16671305,-0.0882598499999988,9.8458766
2026-05-02 08:55:35.355,-0.14709975,-0.0980664999999988,9.8262633
2026-05-02 08:55:35.592,-0.14709975,-0.0980664999999988,9.8262633
2026-05-02 08:55:35.848,-0.1569064,-0.0980664999999988,9.8458766
2026-05-02 08:55:36.093,-0.1569064,-0.0980664999999988,9.8458766
2026-05-02 08:55:36.348,-0.1569064,-0.0882598499999988,9.8458766
2026-05-02 08:55:36.592,-0.1569064,-0.0882598499999988,9.8458766
2026-05-02 08:55:36.852,-0.1765197,-0.0882598499999988,9.85568325
2026-05-02 08:55:37.092,-0.1765197,-0.0882598499999988,9.85568325
2026-05-02 08:55:37.355,-0.14709975,-0.1078731499999988,9.83606995
2026-05-02 08:55:37.592,-0.14709975,-0.1078731499999988,9.83606995
2026-05-02 08:55:37.850,-0.1569064,-0.0882598499999988,9.83606995
2026-05-02 08:55:38.092,-0.1569064,-0.0882598499999988,9.83606995
2026-05-02 08:55:38.345,-0.16671305,-0.0882598499999988,9.85568325
2026-05-02 08:55:38.592,-0.16671305,-0.0882598499999988,9.85568325
2026-05-02 08:55:38.840,-0.1569064,-0.0980664999999988,9.8458766
2026-05-02 08:55:39.091,-0.1569064,-0.0980664999999988,9.8458766
2026-05-02 08:55:39.340,-0.1569064,-0.0882598499999988,9.83606995
2026-05-02 08:55:39.592,-0.1569064,-0.0882598499999988,9.83606995
2026-05-02 08:55:39.843,-0.16671305,-0.0882598499999988,9.8458766
2026-05-02 08:55:40.091,-0.16671305,-0.0882598499999988,9.8458766
2026-05-02 08:55:40.355,-0.16671305,-0.0882598499999988,9.8458766
2026-05-02 08:55:40.592,-0.16671305,-0.0882598499999988,9.8458766
2026-05-02 08:55:40.843,-0.1569064,-0.0980664999999988,9.8458766
2026-05-02 08:55:41.091,-0.1569064,-0.0980664999999988,9.8458766
2026-05-02 08:55:41.356,-0.1765197,-0.0980664999999988,9.85568325
2026-05-02 08:55:41.591,-0.1765197,-0.0980664999999988,9.85568325
2026-05-02 08:55:41.841,-0.1569064,-0.0882598499999988,9.83606995
2026-05-02 08:55:42.092,-0.1569064,-0.0882598499999988,9.83606995
2026-05-02 08:55:42.355,-0.1569064,-0.0980664999999988,9.83606995
2026-05-02 08:55:42.591,-0.1569064,-0.0980664999999988,9.83606995
2026-05-02 08:55:42.848,-0.1569064,-0.0980664999999988,9.8458766
2026-05-02 08:55:43.091,-0.1569064,-0.0980664999999988,9.8458766
2026-05-02 08:55:43.349,-0.16671305,-0.0882598499999988,9.85568325
2026-05-02 08:55:43.592,-0.16671305,-0.0882598499999988,9.85568325
2026-05-02 08:55:43.843,-0.16671305,-0.0980664999999988,9.8458766
2026-05-02 08:55:44.089,-0.16671305,-0.0980664999999988,9.8458766
2026-05-02 08:55:44.357,-0.1569064,-0.0980664999999988,9.83606995
2026-05-02 08:55:44.592,-0.1569064,-0.0980664999999988,9.83606995
2026-05-02 08:55:44.844,-0.16671305,-0.0980664999999988,9.8458766
2026-05-02 08:55:45.091,-0.16671305,-0.0980664999999988,9.8458766
2026-05-02 08:55:45.350,-0.1569064,-0.0784531999999988,9.8458766
2026-05-02 08:55:45.592,-0.1569064,-0.0784531999999988,9.8458766
2026-05-02 08:55:45.841,-0.1569064,-0.0980664999999988,9.85568325
2026-05-02 08:55:46.091,-0.1569064,-0.0980664999999988,9.85568325
2026-05-02 08:55:46.353,-0.1569064,-0.0882598499999988,9.8458766
2026-05-02 08:55:46.592,-0.1569064,-0.0882598499999988,9.8458766
2026-05-02 08:55:46.848,-0.16671305,-0.0882598499999988,9.85568325
2026-05-02 08:55:47.091,-0.16671305,-0.0882598499999988,9.85568325
2026-05-02 08:55:47.341,-0.1569064,-0.0980664999999988,9.8458766
2026-05-02 08:55:47.592,-0.1569064,-0.0980664999999988,9.8458766
2026-05-02 08:55:47.841,-0.1569064,-0.0980664999999988,9.83606995
2026-05-02 08:55:48.091,-0.1569064,-0.0980664999999988,9.83606995
2026-05-02 08:55:48.342,-0.16671305,-0.0882598499999988,9.8458766
2026-05-02 08:55:48.592,-0.16671305,-0.0882598499999988,9.8458766
2026-05-02 08:55:48.840,-0.16671305,-0.0882598499999988,9.8458766
2026-05-02 08:55:49.089,-0.16671305,-0.0882598499999988,9.8458766
2026-05-02 08:55:49.354,-0.16671305,-0.0980664999999988,9.85568325
2026-05-02 08:55:49.589,-0.16671305,-0.0980664999999988,9.85568325
2026-05-02 08:55:49.836,-0.1569064,-0.0882598499999988,9.8458766
2026-05-02 08:55:50.092,-0.1569064,-0.0882598499999988,9.8458766
2026-05-02 08:55:50.365,-0.16671305,-0.0882598499999988,9.8458766
2026-05-02 08:55:50.592,-0.16671305,-0.0882598499999988,9.8458766
2026-05-02 08:55:50.841,-0.1569064,-0.0882598499999988,9.8458766
2026-05-02 08:55:51.091,-0.1569064,-0.0882598499999988,9.8458766
2026-05-02 08:55:51.347,-0.1569064,-0.0882598499999988,9.8458766
2026-05-02 08:55:51.592,-0.1569064,-0.0882598499999988,9.8458766
2026-05-02 08:55:51.850,-0.1569064,-0.0882598499999988,9.8458766
2026-05-02 08:55:52.091,-0.1569064,-0.0882598499999988,9.8458766
2026-05-02 08:55:52.353,-0.1569064,-0.0882598499999988,9.8458766
2026-05-02 08:55:52.592,-0.1569064,-0.0882598499999988,9.8458766
2026-05-02 08:55:52.838,-0.1569064,-0.0980664999999988,9.83606995
2026-05-02 08:55:53.092,-0.1569064,-0.0980664999999988,9.83606995
2026-05-02 08:55:53.334,-0.16671305,-0.0882598499999988,9.8458766
2026-05-02 08:55:53.592,-0.16671305,-0.0882598499999988,9.8458766
2026-05-02 08:55:53.846,-0.16671305,-0.0980664999999988,9.8458766
2026-05-02 08:55:54.089,-0.16671305,-0.0980664999999988,9.8458766
2026-05-02 08:55:54.351,-0.14709975,-0.0882598499999988,9.8458766
2026-05-02 08:55:54.593,-0.14709975,-0.0882598499999988,9.8458766
2026-05-02 08:55:54.841,-0.16671305,-0.0882598499999988,9.8458766
2026-05-02 08:55:55.092,-0.16671305,-0.0882598499999988,9.8458766
2026-05-02 08:55:55.353,-0.1569064,-0.0882598499999988,9.8458766
2026-05-02 08:55:55.592,-0.1569064,-0.0882598499999988,9.8458766
2026-05-02 08:55:55.841,-0.1569064,-0.0882598499999988,9.83606995
2026-05-02 08:55:56.091,-0.1569064,-0.0882598499999988,9.83606995
2026-05-02 08:55:56.357,-0.1569064,-0.0882598499999988,9.8458766
2026-05-02 08:55:56.592,-0.1569064,-0.0882598499999988,9.8458766
2026-05-02 08:55:56.844,-0.1569064,-0.0882598499999988,9.8458766
2026-05-02 08:55:57.091,-0.1569064,-0.0882598499999988,9.8458766
2026-05-02 08:55:57.343,-0.16671305,-0.0882598499999988,9.85568325
2026-05-02 08:55:57.592,-0.16671305,-0.0882598499999988,9.85568325
2026-05-02 08:55:57.849,-0.1569064,-0.0882598499999988,9.8458766
2026-05-02 08:55:58.092,-0.1569064,-0.0882598499999988,9.8458766
2026-05-02 08:55:58.347,-0.1569064,-0.0980664999999988,9.8458766
2026-05-02 08:55:58.592,-0.1569064,-0.0980664999999988,9.8458766
2026-05-02 08:55:58.845,-0.1569064,-0.0882598499999988,9.83606995
2026-05-02 08:55:59.090,-0.1569064,-0.0882598499999988,9.83606995
2026-05-02 08:55:59.350,-0.16671305,-0.0882598499999988,9.8458766
2026-05-02 08:55:59.592,-0.16671305,-0.0882598499999988,9.8458766
2026-05-02 08:55:59.841,-0.1569064,-0.0980664999999988,9.85568325
2026-05-02 08:56:00.092,-0.1569064,-0.0980664999999988,9.85568325
2026-05-02 08:56:00.351,-0.16671305,-0.0882598499999988,9.8458766
2026-05-02 08:56:00.592,-0.16671305,-0.0882598499999988,9.8458766
2026-05-02 08:56:00.846,-0.1569064,-0.0882598499999988,9.8458766
2026-05-02 08:56:01.091,-0.1569064,-0.0882598499999988,9.8458766
2026-05-02 08:56:01.355,-0.1569064,-0.0882598499999988,9.8458766
2026-05-02 08:56:01.592,-0.1569064,-0.0882598499999988,9.8458766
2026-05-02 08:56:01.845,-0.16671305,-0.0980664999999988,9.85568325
2026-05-02 08:56:02.091,-0.16671305,-0.0980664999999988,9.85568325
2026-05-02 08:56:02.354,-0.1569064,-0.0784531999999988,9.85568325
2026-05-02 08:56:02.590,-0.1569064,-0.0784531999999988,9.85568325
2026-05-02 08:56:02.846,-0.14709975,-0.0980664999999988,9.83606995
2026-05-02 08:56:03.092,-0.14709975,-0.0980664999999988,9.83606995
2026-05-02 08:56:03.344,-0.16671305,-0.0980664999999988,9.83606995
2026-05-02 08:56:03.590,-0.16671305,-0.0980664999999988,9.83606995
2026-05-02 08:56:03.840,-0.1569064,-0.0882598499999988,9.83606995
2026-05-02 08:56:04.088,-0.1569064,-0.0882598499999988,9.83606995
2026-05-02 08:56:04.341,-0.1569064,-0.0980664999999988,9.8458766
2026-05-02 08:56:04.592,-0.1569064,-0.0980664999999988,9.8458766
2026-05-02 08:56:04.846,-0.1569064,-0.0980664999999988,9.8458766
2026-05-02 08:56:05.091,-0.1569064,-0.0980664999999988,9.8458766
2026-05-02 08:56:05.358,-0.1569064,-0.0882598499999988,9.8458766
2026-05-02 08:56:05.591,-0.1569064,-0.0882598499999988,9.8458766
2026-05-02 08:56:05.847,-0.1569064,-0.0980664999999988,9.8458766
2026-05-02 08:56:06.091,-0.1569064,-0.0980664999999988,9.8458766
2026-05-02 08:56:06.351,-0.1569064,-0.0882598499999988,9.83606995
2026-05-02 08:56:06.591,-0.1569064,-0.0882598499999988,9.83606995
2026-05-02 08:56:06.849,-0.16671305,-0.0980664999999988,9.8458766
2026-05-02 08:56:07.093,-0.16671305,-0.0980664999999988,9.8458766
2026-05-02 08:56:07.350,-0.1569064,-0.0882598499999988,9.83606995
2026-05-02 08:56:07.591,-0.1569064,-0.0882598499999988,9.83606995
2026-05-02 08:56:07.851,-0.1569064,-0.0882598499999988,9.8458766
2026-05-02 08:56:08.091,-0.1569064,-0.0882598499999988,9.8458766
2026-05-02 08:56:08.341,-0.1569064,-0.0882598499999988,9.8458766
2026-05-02 08:56:08.592,-0.1569064,-0.0882598499999988,9.8458766
2026-05-02 08:56:08.842,-0.16671305,-0.0882598499999988,9.8458766
2026-05-02 08:56:09.091,-0.16671305,-0.0882598499999988,9.8458766
2026-05-02 08:56:09.348,-0.1569064,-0.0980664999999988,9.83606995
2026-05-02 08:56:09.591,-0.1569064,-0.0980664999999988,9.83606995
2026-05-02 08:56:09.848,-0.16671305,-0.0784531999999988,9.8458766
2026-05-02 08:56:10.091,-0.16671305,-0.0784531999999988,9.8458766
2026-05-02 08:56:10.339,-0.1569064,-0.0980664999999988,9.85568325
2026-05-02 08:56:10.593,-0.1569064,-0.0980664999999988,9.85568325
2026-05-02 08:56:10.841,-0.1569064,-0.0980664999999988,9.8458766
2026-05-02 08:56:11.091,-0.1569064,-0.0980664999999988,9.8458766
2026-05-02 08:56:11.348,-0.16671305,-0.0882598499999988,9.8458766
2026-05-02 08:56:11.591,-0.16671305,-0.0882598499999988,9.8458766
2026-05-02 08:56:11.840,-0.1569064,-0.0882598499999988,9.8458766
2026-05-02 08:56:12.091,-0.1569064,-0.0882598499999988,9.8458766
2026-05-02 08:56:12.349,-0.22555295,0.11767980000000121,9.81645665
2026-05-02 08:56:12.592,-0.22555295,0.11767980000000121,9.81645665
2026-05-02 08:56:12.848,-0.1372931,0.0392266000000012,9.83606995
2026-05-02 08:56:13.091,-0.1372931,0.0392266000000012,9.83606995
2026-05-02 08:56:13.347,-0.2157463,0.03922660000000121,9.87529655
2026-05-02 08:56:13.590,-0.2157463,0.03922660000000121,9.87529655
2026-05-02 08:56:13.857,-0.18632635,1.2057721262989826e-15,9.8458766
2026-05-02 08:56:14.089,-0.18632635,1.2057721262989826e-15,9.8458766
2026-05-02 08:56:14.359,-0.30400615,1.2093750310588401e-15,9.87529655
2026-05-02 08:56:14.591,-0.30400615,1.2093750310588401e-15,9.87529655
2026-05-02 08:56:14.842,-0.1372931,-0.11767979999999878,9.93413645
2026-05-02 08:56:15.091,-0.1372931,-0.11767979999999878,9.93413645
2026-05-02 08:56:15.342,0.2353596,-0.1470997499999988,9.7478101
2026-05-02 08:56:15.593,0.2353596,-0.1470997499999988,9.7478101
2026-05-02 08:56:15.855,-0.02941995,-0.0882598499999988,9.81645665
2026-05-02 08:56:16.093,-0.02941995,-0.0882598499999988,9.81645665
2026-05-02 08:56:16.350,0.0588399,-0.1863263499999988,9.80665
2026-05-02 08:56:16.591,0.0588399,-0.1863263499999988,9.80665
2026-05-02 08:56:16.839,0.0196133,-0.04903324999999879,9.8654899
2026-05-02 08:56:17.091,0.0196133,-0.04903324999999879,9.8654899
2026-05-02 08:56:17.361,-0.0196133,-0.1274864499999988,9.85568325
2026-05-02 08:56:17.592,-0.0196133,-0.1274864499999988,9.85568325
2026-05-02 08:56:17.840,-0.04903325,-0.1274864499999988,9.85568325
2026-05-02 08:56:18.092,-0.04903325,-0.1274864499999988,9.85568325
2026-05-02 08:56:18.341,-0.08825985,-0.0882598499999988,9.8458766
2026-05-02 08:56:18.591,-0.08825985,-0.0882598499999988,9.8458766
2026-05-02 08:56:18.839,-0.08825985,-0.1078731499999988,9.8458766
2026-05-02 08:56:19.091,-0.08825985,-0.1078731499999988,9.8458766
2026-05-02 08:56:19.348,-0.06864655,-0.0980664999999988,9.85568325
2026-05-02 08:56:19.588,-0.06864655,-0.0980664999999988,9.85568325
2026-05-02 08:56:19.840,-0.08825985,-0.1274864499999988,9.85568325
2026-05-02 08:56:20.092,-0.08825985,-0.1274864499999988,9.85568325
2026-05-02 08:56:20.355,-0.0980665,-0.1176797999999988,9.8458766
2026-05-02 08:56:20.592,-0.0980665,-0.1176797999999988,9.8458766
2026-05-02 08:56:20.848,-0.10787315,-0.0980664999999988,9.85568325
2026-05-02 08:56:21.091,-0.10787315,-0.0980664999999988,9.85568325
2026-05-02 08:56:21.365,-0.4903325,-0.1274864499999988,9.87529655
2026-05-02 08:56:21.591,-0.4903325,-0.1274864499999988,9.87529655
2026-05-02 08:56:21.842,-0.36284605000000003,-0.1176797999999988,9.7870367
2026-05-02 08:56:22.092,-0.36284605000000003,-0.1176797999999988,9.7870367
2026-05-02 08:56:22.359,-0.3138128,-0.0882598499999988,9.8262633
2026-05-02 08:56:22.591,-0.3138128,-0.0882598499999988,9.8262633
2026-05-02 08:56:22.839,-0.24516625,-0.1176797999999988,9.8458766
2026-05-02 08:56:23.091,-0.24516625,-0.1176797999999988,9.8458766
2026-05-02 08:56:23.344,-0.24516625,-0.0980664999999988,9.8654899
2026-05-02 08:56:23.591,-0.24516625,-0.0980664999999988,9.8654899
2026-05-02 08:56:23.845,-0.2157463,-0.1078731499999988,9.81645665
2026-05-02 08:56:24.091,-0.2157463,-0.1078731499999988,9.81645665
2026-05-02 08:56:24.350,-0.20593965,-0.0980664999999988,9.8458766
2026-05-02 08:56:24.592,-0.20593965,-0.0980664999999988,9.8458766
2026-05-02 08:56:24.843,-0.18632635,-0.0980664999999988,9.8458766
2026-05-02 08:56:25.091,-0.18632635,-0.0980664999999988,9.8458766
2026-05-02 08:56:25.360,-0.196133,-0.1078731499999988,9.8654899
2026-05-02 08:56:25.590,-0.196133,-0.1078731499999988,9.8654899
2026-05-02 08:56:25.842,-0.16671305,-0.0882598499999988,9.8262633
2026-05-02 08:56:26.092,-0.16671305,-0.0882598499999988,9.8262633
2026-05-02 08:56:26.343,-0.18632635,-0.0980664999999988,9.83606995
2026-05-02 08:56:26.590,-0.18632635,-0.0980664999999988,9.83606995
2026-05-02 08:56:26.840,-0.16671305,-0.0882598499999988,9.8458766
2026-05-02 08:56:27.091,-0.16671305,-0.0882598499999988,9.8458766
2026-05-02 08:56:27.352,-0.1765197,-0.0882598499999988,9.85568325
2026-05-02 08:56:27.595,-0.1765197,-0.0882598499999988,9.85568325
2026-05-02 08:56:27.856,-0.14709975,-0.0980664999999988,9.8458766
2026-05-02 08:56:28.090,-0.14709975,-0.0980664999999988,9.8458766
2026-05-02 08:56:28.340,-0.16671305,-0.0784531999999988,9.8458766
2026-05-02 08:56:28.590,-0.16671305,-0.0784531999999988,9.8458766
2026-05-02 08:56:28.840,-0.14709975,-0.0882598499999988,9.8458766
2026-05-02 08:56:29.087,-0.14709975,-0.0882598499999988,9.8458766
2026-05-02 08:56:29.340,-0.1569064,-0.0882598499999988,9.85568325
2026-05-02 08:56:29.590,-0.1569064,-0.0882598499999988,9.85568325
2026-05-02 08:56:29.844,-0.1372931,-0.0784531999999988,9.8458766
2026-05-02 08:56:30.090,-0.1372931,-0.0784531999999988,9.8458766
2026-05-02 08:56:30.348,-0.14709975,-0.0882598499999988,9.8458766
2026-05-02 08:56:30.598,-0.14709975,-0.0882598499999988,9.8458766
2026-05-02 08:56:30.839,-0.1372931,-0.0882598499999988,9.8458766
2026-05-02 08:56:31.090,-0.1372931,-0.0882598499999988,9.8458766
2026-05-02 08:56:31.344,-0.1569064,-0.0882598499999988,9.85568325
2026-05-02 08:56:31.591,-0.1569064,-0.0882598499999988,9.85568325
2026-05-02 08:56:31.842,-0.1569064,-0.0882598499999988,9.8458766
2026-05-02 08:56:32.090,-0.1569064,-0.0882598499999988,9.8458766
2026-05-02 08:56:32.356,-0.14709975,-0.0882598499999988,9.8458766
2026-05-02 08:56:32.591,-0.14709975,-0.0882598499999988,9.8458766
2026-05-02 08:56:32.842,-0.1569064,-0.0882598499999988,9.85568325
2026-05-02 08:56:33.090,-0.1569064,-0.0882598499999988,9.85568325
2026-05-02 08:56:33.335,-0.14709975,-0.0882598499999988,9.8458766
2026-05-02 08:56:33.591,-0.14709975,-0.0882598499999988,9.8458766
2026-05-02 08:56:33.842,-0.1569064,-0.0980664999999988,9.83606995
2026-05-02 08:56:34.088,-0.1569064,-0.0980664999999988,9.83606995
2026-05-02 08:56:34.357,-0.14709975,-0.0980664999999988,9.83606995
2026-05-02 08:56:34.591,-0.14709975,-0.0980664999999988,9.83606995
2026-05-02 08:56:34.842,-0.1569064,-0.0882598499999988,9.85568325
2026-05-02 08:56:35.091,-0.1569064,-0.0882598499999988,9.85568325
2026-05-02 08:56:35.347,-0.1569064,-0.0882598499999988,9.8458766
2026-05-02 08:56:35.591,-0.1569064,-0.0882598499999988,9.8458766
2026-05-02 08:56:35.856,-0.1569064,-0.0980664999999988,9.8458766
2026-05-02 08:56:36.091,-0.1569064,-0.0980664999999988,9.8458766
2026-05-02 08:56:36.368,0.4314926,-0.08825984999999882,9.7085835
2026-05-02 08:56:36.591,0.4314926,-0.08825984999999882,9.7085835
2026-05-02 08:56:36.846,-0.0980665,-0.009806649999998796,9.83606995
2026-05-02 08:56:37.091,-0.0980665,-0.009806649999998796,9.83606995
2026-05-02 08:56:37.353,0.0,-0.029419949999998803,9.77723005
2026-05-02 08:56:37.590,0.0,-0.029419949999998803,9.77723005
2026-05-02 08:56:37.849,-0.06864655,0.01961330000000121,9.87529655
2026-05-02 08:56:38.092,-0.06864655,0.01961330000000121,9.87529655
2026-05-02 08:56:38.336,-0.06864655,-0.03922659999999879,9.8654899
2026-05-02 08:56:38.592,-0.06864655,-0.03922659999999879,9.8654899
2026-05-02 08:56:38.845,-0.08825985,-0.009806649999998791,9.87529655
2026-05-02 08:56:39.089,-0.08825985,-0.009806649999998791,9.87529655
2026-05-02 08:56:39.351,-0.0980665,1.2045711580456967e-15,9.83606995
2026-05-02 08:56:39.590,-0.0980665,1.2045711580456967e-15,9.83606995
2026-05-02 08:56:39.845,-0.1176798,-0.029419949999998793,9.83606995
2026-05-02 08:56:40.091,-0.1176798,-0.029419949999998793,9.83606995
2026-05-02 08:56:40.360,-0.1176798,1.2045711580456967e-15,9.83606995
2026-05-02 08:56:40.590,-0.1176798,1.2045711580456967e-15,9.83606995
2026-05-02 08:56:40.840,0.0392266,-0.09806649999999878,9.93413645
2026-05-02 08:56:41.090,0.0392266,-0.09806649999999878,9.93413645
2026-05-02 08:56:41.353,0.0196133,-0.1176797999999988,9.85568325
2026-05-02 08:56:41.592,0.0196133,-0.1176797999999988,9.85568325
2026-05-02 08:56:41.839,-0.0392266,-0.1274864499999988,9.8262633
2026-05-02 08:56:42.090,-0.0392266,-0.1274864499999988,9.8262633
2026-05-02 08:56:42.353,-0.04903325,-0.0882598499999988,9.81645665
2026-05-02 08:56:42.591,-0.04903325,-0.0882598499999988,9.81645665
2026-05-02 08:56:42.841,-0.06864655,-0.1078731499999988,9.8458766
2026-05-02 08:56:43.092,-0.06864655,-0.1078731499999988,9.8458766
2026-05-02 08:56:43.347,-0.0784532,-0.1274864499999988,9.8458766
2026-05-02 08:56:43.593,-0.0784532,-0.1274864499999988,9.8458766
2026-05-02 08:56:43.841,-0.08825985,-0.1176797999999988,9.8654899
2026-05-02 08:56:44.088,-0.08825985,-0.1176797999999988,9.8654899
2026-05-02 08:56:44.357,-0.08825985,-0.1274864499999988,9.8458766
2026-05-02 08:56:44.591,-0.08825985,-0.1274864499999988,9.8458766
2026-05-02 08:56:44.846,-0.08825985,-0.1176797999999988,9.8458766
2026-05-02 08:56:45.091,-0.08825985,-0.1176797999999988,9.8458766
2026-05-02 08:56:45.361,-0.06864655,-0.1078731499999988,9.83606995
2026-05-02 08:56:45.591,-0.06864655,-0.1078731499999988,9.83606995
2026-05-02 08:56:45.844,-0.08825985,-0.1176797999999988,9.8458766
2026-05-02 08:56:46.090,-0.08825985,-0.1176797999999988,9.8458766
2026-05-02 08:56:46.361,-0.08825985,-0.1176797999999988,9.8262633
2026-05-02 08:56:46.591,-0.08825985,-0.1176797999999988,9.8262633
2026-05-02 08:56:46.839,-0.1176798,-0.1078731499999988,9.85568325
2026-05-02 08:56:47.091,-0.1176798,-0.1078731499999988,9.85568325
2026-05-02 08:56:47.352,-0.1176798,-0.0980664999999988,9.8458766
2026-05-02 08:56:47.591,-0.1176798,-0.0980664999999988,9.8458766
2026-05-02 08:56:47.843,-0.10787315,-0.0980664999999988,9.83606995
2026-05-02 08:56:48.089,-0.10787315,-0.0980664999999988,9.83606995
2026-05-02 08:56:48.338,-0.12748645,-0.0882598499999988,9.85568325
2026-05-02 08:56:48.589,-0.12748645,-0.0882598499999988,9.85568325
2026-05-02 08:56:48.849,-0.2941995,-0.11767979999999882,9.73800345
2026-05-02 08:56:49.087,-0.2941995,-0.11767979999999882,9.73800345
2026-05-02 08:56:49.354,-0.5491724,-0.1078731499999988,9.87529655
2026-05-02 08:56:49.590,-0.5491724,-0.1078731499999988,9.87529655
2026-05-02 08:56:49.840,-0.24516625,-0.1078731499999988,9.8262633
2026-05-02 08:56:50.090,-0.24516625,-0.1078731499999988,9.8262633
2026-05-02 08:56:50.346,-0.28439285000000003,-0.10787314999999878,9.89490985
2026-05-02 08:56:50.590,-0.28439285000000003,-0.10787314999999878,9.89490985
2026-05-02 08:56:50.842,-0.18632635,-0.0980664999999988,9.8262633
2026-05-02 08:56:51.089,-0.18632635,-0.0980664999999988,9.8262633
2026-05-02 08:56:51.352,-0.2157463,-0.0980664999999988,9.83606995
2026-05-02 08:56:51.590,-0.2157463,-0.0980664999999988,9.83606995
2026-05-02 08:56:51.843,-0.16671305,-0.0980664999999988,9.83606995
2026-05-02 08:56:52.090,-0.16671305,-0.0980664999999988,9.83606995
2026-05-02 08:56:52.346,-0.196133,-0.0980664999999988,9.85568325
2026-05-02 08:56:52.587,-0.196133,-0.0980664999999988,9.85568325
2026-05-02 08:56:52.840,-0.18632635,-0.0882598499999988,9.85568325
2026-05-02 08:56:53.089,-0.18632635,-0.0882598499999988,9.85568325
2026-05-02 08:56:53.340,-0.1765197,-0.0980664999999988,9.83606995
2026-05-02 08:56:53.590,-0.1765197,-0.0980664999999988,9.83606995
2026-05-02 08:56:53.839,-0.1765197,-0.1078731499999988,9.83606995
2026-05-02 08:56:54.087,-0.1765197,-0.1078731499999988,9.83606995
2026-05-02 08:56:54.360,-0.1765197,-0.0980664999999988,9.83606995
2026-05-02 08:56:54.591,-0.1765197,-0.0980664999999988,9.83606995
2026-05-02 08:56:54.844,-0.16671305,-0.0882598499999988,9.85568325
2026-05-02 08:56:55.090,-0.16671305,-0.0882598499999988,9.85568325
2026-05-02 08:56:55.350,-0.16671305,-0.0882598499999988,9.85568325
2026-05-02 08:56:55.590,-0.16671305,-0.0882598499999988,9.85568325
2026-05-02 08:56:55.843,-0.1569064,-0.0882598499999988,9.85568325
2026-05-02 08:56:56.090,-0.1569064,-0.0882598499999988,9.85568325
2026-05-02 08:56:56.354,-0.1569064,-0.0882598499999988,9.83606995
2026-05-02 08:56:56.590,-0.1569064,-0.0882598499999988,9.83606995
2026-05-02 08:56:56.841,-0.1569064,-0.0784531999999988,9.83606995
2026-05-02 08:56:57.090,-0.1569064,-0.0784531999999988,9.83606995
2026-05-02 08:56:57.368,0.26477955,-0.0882598499999988,9.7478101
2026-05-02 08:56:57.590,0.26477955,-0.0882598499999988,9.7478101
2026-05-02 08:56:57.840,0.12748645,-0.09806649999999878,9.93413645
2026-05-02 08:56:58.092,0.12748645,-0.09806649999999878,9.93413645
2026-05-02 08:56:58.340,0.1372931,-0.1078731499999988,9.8654899
2026-05-02 08:56:58.587,0.1372931,-0.1078731499999988,9.8654899
2026-05-02 08:56:58.838,0.0392266,-0.0686465499999988,9.8654899
2026-05-02 08:56:59.087,0.0392266,-0.0686465499999988,9.8654899
2026-05-02 08:56:59.353,0.06864655,-0.1078731499999988,9.79684335
2026-05-02 08:56:59.589,0.06864655,-0.1078731499999988,9.79684335
2026-05-02 08:56:59.842,0.0,-0.1078731499999988,9.8458766
2026-05-02 08:57:00.089,0.0,-0.1078731499999988,9.8458766
2026-05-02 08:57:00.346,-0.04903325,-0.0980664999999988,9.85568325
2026-05-02 08:57:00.590,-0.04903325,-0.0980664999999988,9.85568325
2026-05-02 08:57:00.836,-0.00980665,-0.0980664999999988,9.83606995
2026-05-02 08:57:01.087,-0.00980665,-0.0980664999999988,9.83606995
2026-05-02 08:57:01.359,-0.0588399,-0.1176797999999988,9.8458766
2026-05-02 08:57:01.590,-0.0588399,-0.1176797999999988,9.8458766
2026-05-02 08:57:01.844,-0.51975245,-0.03922659999999879,9.8654899
2026-05-02 08:57:02.090,-0.51975245,-0.03922659999999879,9.8654899
2026-05-02 08:57:02.358,-0.4118793,0.0490332500000012,9.81645665
2026-05-02 08:57:02.592,-0.4118793,0.0490332500000012,9.81645665
2026-05-02 08:57:02.840,-0.4511059,0.009806650000001204,9.8262633
2026-05-02 08:57:03.090,-0.4511059,0.009806650000001204,9.8262633
2026-05-02 08:57:03.342,-0.2941995,0.009806650000001202,9.81645665
2026-05-02 08:57:03.590,-0.2941995,0.009806650000001202,9.81645665
2026-05-02 08:57:03.843,-0.2157463,1.2105759993121259e-15,9.8851032
2026-05-02 08:57:04.087,-0.2157463,1.2105759993121259e-15,9.8851032
2026-05-02 08:57:04.355,-0.20593965,1.2057721262989826e-15,9.8458766
2026-05-02 08:57:04.590,-0.20593965,1.2057721262989826e-15,9.8458766
2026-05-02 08:57:04.838,-0.24516625,0.00980665000000121,9.8654899
2026-05-02 08:57:05.090,-0.24516625,0.00980665000000121,9.8654899
2026-05-02 08:57:05.359,-0.24516625,-0.0784531999999988,9.8262633
2026-05-02 08:57:05.590,-0.24516625,-0.0784531999999988,9.8262633
2026-05-02 08:57:05.838,-0.20593965,-0.019613299999998796,9.8262633
2026-05-02 08:57:06.090,-0.20593965,-0.019613299999998796,9.8262633
2026-05-02 08:57:06.341,-0.2353596,1.2081740628055542e-15,9.8654899
2026-05-02 08:57:06.590,-0.2353596,1.2081740628055542e-15,9.8654899
2026-05-02 08:57:06.839,-0.2353596,-0.019613299999998793,9.8458766
2026-05-02 08:57:07.090,-0.2353596,-0.019613299999998793,9.8458766
2026-05-02 08:57:07.348,-0.16671305,-0.009806649999998794,9.8458766
2026-05-02 08:57:07.592,-0.16671305,-0.009806649999998794,9.8458766
2026-05-02 08:57:07.839,-0.2941995,-0.0784531999999988,9.9047165
2026-05-02 08:57:08.090,-0.2941995,-0.0784531999999988,9.9047165
2026-05-02 08:57:08.334,-0.1765197,-0.0294199499999988,9.80665
2026-05-02 08:57:08.590,-0.1765197,-0.0294199499999988,9.80665
2026-05-02 08:57:08.843,-0.2549729,-0.1569063999999988,9.8654899
2026-05-02 08:57:09.087,-0.2549729,-0.1569063999999988,9.8654899
2026-05-02 08:57:09.344,-0.12748645,-0.1470997499999988,9.81645665
2026-05-02 08:57:09.590,-0.12748645,-0.1470997499999988,9.81645665
2026-05-02 08:57:09.844,-0.06864655,-0.0980664999999988,9.8654899
2026-05-02 08:57:10.090,-0.06864655,-0.0980664999999988,9.8654899
2026-05-02 08:57:10.344,0.00980665,-0.029419949999998793,9.8458766
2026-05-02 08:57:10.590,0.00980665,-0.029419949999998793,9.8458766
2026-05-02 08:57:10.846,0.00980665,-0.0490332499999988,9.8458766
2026-05-02 08:57:11.089,0.00980665,-0.0490332499999988,9.8458766
2026-05-02 08:57:11.355,-0.0392266,-0.009806649999998793,9.85568325
2026-05-02 08:57:11.590,-0.0392266,-0.009806649999998793,9.85568325
2026-05-02 08:57:11.846,-0.0588399,-0.029419949999998793,9.83606995
2026-05-02 08:57:12.091,-0.0588399,-0.029419949999998793,9.83606995
2026-05-02 08:57:12.345,-0.1176798,-0.019613299999998793,9.8458766
2026-05-02 08:57:12.590,-0.1176798,-0.019613299999998793,9.8458766
2026-05-02 08:57:12.838,-0.18632635,-0.04903324999999879,9.85568325
2026-05-02 08:57:13.090,-0.18632635,-0.04903324999999879,9.85568325
2026-05-02 08:57:13.350,-0.20593965,-0.0490332499999988,9.8458766
2026-05-02 08:57:13.590,-0.20593965,-0.0490332499999988,9.8458766
2026-05-02 08:57:13.841,-0.2353596,-0.0686465499999988,9.83606995
2026-05-02 08:57:14.087,-0.2353596,-0.0686465499999988,9.83606995
2026-05-02 08:57:14.353,-0.2745862,-0.0686465499999988,9.85568325
2026-05-02 08:57:14.590,-0.2745862,-0.0686465499999988,9.85568325
2026-05-02 08:57:14.841,-0.2353596,-0.0882598499999988,9.8458766
2026-05-02 08:57:15.090,-0.2353596,-0.0882598499999988,9.8458766
2026-05-02 08:57:15.345,-0.2157463,-0.0980664999999988,9.8262633
2026-05-02 08:57:15.589,-0.2157463,-0.0980664999999988,9.8262633
2026-05-02 08:57:15.837,-0.22555295,-0.1176797999999988,9.83606995
2026-05-02 08:57:16.089,-0.22555295,-0.1176797999999988,9.83606995
2026-05-02 08:57:16.340,-0.20593965,-0.1274864499999988,9.8458766
2026-05-02 08:57:16.589,-0.20593965,-0.1274864499999988,9.8458766
2026-05-02 08:57:16.840,-0.1765197,-0.1470997499999988,9.85568325
2026-05-02 08:57:17.088,-0.1765197,-0.1470997499999988,9.85568325
2026-05-02 08:57:17.344,-0.1372931,-0.1176797999999988,9.83606995
2026-05-02 08:57:17.587,-0.1372931,-0.1176797999999988,9.83606995
2026-05-02 08:57:17.840,-0.14709975,-0.16671304999999878,9.83606995
2026-05-02 08:57:18.091,-0.14709975,-0.16671304999999878,9.83606995
2026-05-02 08:57:18.338,-0.12748645,-0.1372930999999988,9.83606995
2026-05-02 08:57:18.590,-0.12748645,-0.1372930999999988,9.83606995
2026-05-02 08:57:18.849,-0.1372931,-0.1470997499999988,9.85568325
2026-05-02 08:57:19.086,-0.1372931,-0.1470997499999988,9.85568325
2026-05-02 08:57:19.349,-0.14709975,-0.16671304999999878,9.85568325
2026-05-02 08:57:19.590,-0.14709975,-0.16671304999999878,9.85568325
2026-05-02 08:57:19.844,-0.12748645,-0.0490332499999988,9.83606995
2026-05-02 08:57:20.090,-0.12748645,-0.0490332499999988,9.83606995
2026-05-02 08:57:20.350,-0.12748645,-0.1569063999999988,9.8262633
2026-05-02 08:57:20.590,-0.12748645,-0.1569063999999988,9.8262633
2026-05-02 08:57:20.845,-0.1176798,-0.18632634999999878,9.8262633
2026-05-02 08:57:21.088,-0.1176798,-0.18632634999999878,9.8262633
2026-05-02 08:57:21.356,-0.1569064,-0.1176797999999988,9.8262633
2026-05-02 08:57:21.590,-0.1569064,-0.1176797999999988,9.8262633
2026-05-02 08:57:21.841,-0.1765197,-0.1470997499999988,9.8654899
2026-05-02 08:57:22.092,-0.1765197,-0.1470997499999988,9.8654899
2026-05-02 08:57:22.352,-0.20593965,-0.0784531999999988,9.87529655
2026-05-02 08:57:22.590,-0.20593965,-0.0784531999999988,9.87529655
2026-05-02 08:57:22.845,-0.20593965,-0.1274864499999988,9.85568325
2026-05-02 08:57:23.089,-0.20593965,-0.1274864499999988,9.85568325
2026-05-02 08:57:23.338,-0.196133,-0.0882598499999988,9.8458766
2026-05-02 08:57:23.589,-0.196133,-0.0882598499999988,9.8458766
2026-05-02 08:57:23.847,-0.1765197,-0.0882598499999988,9.8458766
2026-05-02 08:57:24.086,-0.1765197,-0.0882598499999988,9.8458766
2026-05-02 08:57:24.348,-0.10787315,-0.16671304999999878,9.8458766
2026-05-02 08:57:24.589,-0.10787315,-0.16671304999999878,9.8458766
2026-05-02 08:57:24.841,-0.196133,-0.0882598499999988,9.83606995
2026-05-02 08:57:25.090,-0.196133,-0.0882598499999988,9.83606995
2026-05-02 08:57:25.350,-0.10787315,-0.18632634999999878,9.8458766
2026-05-02 08:57:25.589,-0.10787315,-0.18632634999999878,9.8458766
2026-05-02 08:57:25.838,-0.1569064,-0.1372930999999988,9.85568325
2026-05-02 08:57:26.090,-0.1569064,-0.1372930999999988,9.85568325
2026-05-02 08:57:26.349,-0.2353596,-0.0980664999999988,9.8458766
2026-05-02 08:57:26.590,-0.2353596,-0.0980664999999988,9.8458766
2026-05-02 08:57:26.846,-0.2157463,-0.029419949999998793,9.85568325
2026-05-02 08:57:27.091,-0.2157463,-0.029419949999998793,9.85568325
2026-05-02 08:57:27.343,-0.1765197,-0.0588398999999988,9.8458766
2026-05-02 08:57:27.589,-0.1765197,-0.0588398999999988,9.8458766
2026-05-02 08:57:27.847,-0.0980665,-0.1372930999999988,9.85568325
2026-05-02 08:57:28.090,-0.0980665,-0.1372930999999988,9.85568325
2026-05-02 08:57:28.338,-0.18632635,-0.0686465499999988,9.8458766
2026-05-02 08:57:28.589,-0.18632635,-0.0686465499999988,9.8458766
2026-05-02 08:57:28.839,-0.20593965,-0.0686465499999988,9.8458766
2026-05-02 08:57:29.086,-0.20593965,-0.0686465499999988,9.8458766
2026-05-02 08:57:29.341,-0.18632635,-0.0588398999999988,9.83606995
2026-05-02 08:57:29.590,-0.18632635,-0.0588398999999988,9.83606995
2026-05-02 08:57:29.845,-0.18632635,-0.0784531999999988,9.8458766
2026-05-02 08:57:30.090,-0.18632635,-0.0784531999999988,9.8458766
2026-05-02 08:57:30.346,-0.18632635,-0.0784531999999988,9.8458766
2026-05-02 08:57:30.590,-0.18632635,-0.0784531999999988,9.8458766
2026-05-02 08:57:30.847,-0.196133,-0.0686465499999988,9.8458766
2026-05-02 08:57:31.091,-0.196133,-0.0686465499999988,9.8458766
2026-05-02 08:57:31.343,-0.18632635,-0.0882598499999988,9.83606995
2026-05-02 08:57:31.589,-0.18632635,-0.0882598499999988,9.83606995
2026-05-02 08:57:31.841,-0.18632635,-0.0980664999999988,9.8458766
2026-05-02 08:57:32.089,-0.18632635,-0.0980664999999988,9.8458766
2026-05-02 08:57:32.344,-0.1569064,-0.0882598499999988,9.8262633
2026-05-02 08:57:32.589,-0.1569064,-0.0882598499999988,9.8262633
2026-05-02 08:57:32.839,-0.196133,-0.0980664999999988,9.85568325
2026-05-02 08:57:33.089,-0.196133,-0.0980664999999988,9.85568325
2026-05-02 08:57:33.338,-0.1765197,-0.0882598499999988,9.85568325
2026-05-02 08:57:33.589,-0.1765197,-0.0882598499999988,9.85568325
2026-05-02 08:57:33.845,-0.1176798,-0.1470997499999988,9.85568325
2026-05-02 08:57:34.087,-0.1176798,-0.1470997499999988,9.85568325
2026-05-02 08:57:34.353,-0.18632635,-0.0980664999999988,9.85568325
2026-05-02 08:57:34.589,-0.18632635,-0.0980664999999988,9.85568325
2026-05-02 08:57:34.839,-0.1765197,-0.0980664999999988,9.8458766
2026-05-02 08:57:35.089,-0.1765197,-0.0980664999999988,9.8458766
2026-05-02 08:57:35.360,-0.16671305,-0.0980664999999988,9.8458766
2026-05-02 08:57:35.590,-0.16671305,-0.0980664999999988,9.8458766
2026-05-02 08:57:35.849,-0.14709975,-0.1176797999999988,9.83606995
2026-05-02 08:57:36.089,-0.14709975,-0.1176797999999988,9.83606995
2026-05-02 08:57:36.347,-0.1569064,-0.1176797999999988,9.8458766
2026-05-02 08:57:36.588,-0.1569064,-0.1176797999999988,9.8458766
2026-05-02 08:57:36.842,-0.16671305,-0.1176797999999988,9.85568325
2026-05-02 08:57:37.089,-0.16671305,-0.1176797999999988,9.85568325
2026-05-02 08:57:37.353,-0.1569064,-0.1176797999999988,9.8458766
2026-05-02 08:57:37.588,-0.1569064,-0.1176797999999988,9.8458766
2026-05-02 08:57:37.843,-0.196133,-0.0882598499999988,9.83606995
2026-05-02 08:57:38.088,-0.196133,-0.0882598499999988,9.83606995
2026-05-02 08:57:38.338,-0.28439285000000003,-0.0686465499999988,9.8262633
2026-05-02 08:57:38.588,-0.28439285000000003,-0.0686465499999988,9.8262633
2026-05-02 08:57:38.848,-0.26477955,-0.0980664999999988,9.8262633
2026-05-02 08:57:39.086,-0.26477955,-0.0980664999999988,9.8262633
2026-05-02 08:57:39.354,-0.2353596,-0.0980664999999988,9.8458766
2026-05-02 08:57:39.588,-0.2353596,-0.0980664999999988,9.8458766
2026-05-02 08:57:39.849,-0.2157463,-0.0784531999999988,9.8458766
2026-05-02 08:57:40.089,-0.2157463,-0.0784531999999988,9.8458766
2026-05-02 08:57:40.348,-0.20593965,-0.0980664999999988,9.8458766
2026-05-02 08:57:40.589,-0.20593965,-0.0980664999999988,9.8458766
2026-05-02 08:57:40.845,-0.196133,-0.0980664999999988,9.83606995
2026-05-02 08:57:41.088,-0.196133,-0.0980664999999988,9.83606995
2026-05-02 08:57:41.346,-0.196133,-0.0882598499999988,9.8458766
2026-05-02 08:57:41.589,-0.196133,-0.0882598499999988,9.8458766
2026-05-02 08:57:41.841,-0.18632635,-0.0980664999999988,9.8458766
2026-05-02 08:57:42.089,-0.18632635,-0.0980664999999988,9.8458766
2026-05-02 08:57:42.344,-0.18632635,-0.0980664999999988,9.8458766
2026-05-02 08:57:42.586,-0.18632635,-0.0980664999999988,9.8458766
2026-05-02 08:57:42.831,-0.1765197,-0.0784531999999988,9.8458766
2026-05-02 08:57:43.093,-0.1765197,-0.0784531999999988,9.8458766
2026-05-02 08:57:43.340,-0.1765197,-0.0882598499999988,9.83606995
2026-05-02 08:57:43.589,-0.1765197,-0.0882598499999988,9.83606995
2026-05-02 08:57:43.843,-0.1765197,-0.0980664999999988,9.8458766
2026-05-02 08:57:44.086,-0.1765197,-0.0980664999999988,9.8458766
2026-05-02 08:57:44.331,-0.1765197,-0.0882598499999988,9.85568325
2026-05-02 08:57:44.590,-0.1765197,-0.0882598499999988,9.85568325
2026-05-02 08:57:44.833,-0.1765197,-0.0882598499999988,9.85568325
2026-05-02 08:57:45.087,-0.1765197,-0.0882598499999988,9.85568325
2026-05-02 08:57:45.351,-0.1765197,-0.0980664999999988,9.8458766
2026-05-02 08:57:45.589,-0.1765197,-0.0980664999999988,9.8458766
2026-05-02 08:57:45.841,-0.16671305,-0.0882598499999988,9.83606995
2026-05-02 08:57:46.091,-0.16671305,-0.0882598499999988,9.83606995
2026-05-02 08:57:46.351,-0.16671305,-0.0882598499999988,9.83606995
2026-05-02 08:57:46.589,-0.16671305,-0.0882598499999988,9.83606995
2026-05-02 08:57:46.843,-0.16671305,-0.0980664999999988,9.83606995
2026-05-02 08:57:47.088,-0.16671305,-0.0980664999999988,9.83606995
2026-05-02 08:57:47.351,-0.1765197,-0.0882598499999988,9.85568325
2026-05-02 08:57:47.589,-0.1765197,-0.0882598499999988,9.85568325
2026-05-02 08:57:47.838,-0.16671305,-0.0980664999999988,9.85568325
2026-05-02 08:57:48.090,-0.16671305,-0.0980664999999988,9.85568325
2026-05-02 08:57:48.344,-0.1569064,-0.0980664999999988,9.83606995
2026-05-02 08:57:48.586,-0.1569064,-0.0980664999999988,9.83606995
2026-05-02 08:57:48.843,-0.16671305,-0.0882598499999988,9.83606995
2026-05-02 08:57:49.086,-0.16671305,-0.0882598499999988,9.83606995
2026-05-02 08:57:49.347,-0.16671305,-0.0882598499999988,9.8458766
2026-05-02 08:57:49.591,-0.16671305,-0.0882598499999988,9.8458766
2026-05-02 08:57:49.831,-0.16671305,-0.0980664999999988,9.8458766
2026-05-02 08:57:50.090,-0.16671305,-0.0980664999999988,9.8458766
2026-05-02 08:57:50.331,-0.1569064,-0.0980664999999988,9.85568325
2026-05-02 08:57:50.586,-0.1569064,-0.0980664999999988,9.85568325
2026-05-02 08:57:50.855,-0.16671305,-0.0882598499999988,9.8458766
2026-05-02 08:57:51.089,-0.16671305,-0.0882598499999988,9.8458766
2026-05-02 08:57:51.336,-0.1569064,-0.0980664999999988,9.83606995
2026-05-02 08:57:51.586,-0.1569064,-0.0980664999999988,9.83606995
2026-05-02 08:57:51.834,-0.16671305,-0.0980664999999988,9.8458766
2026-05-02 08:57:52.088,-0.16671305,-0.0980664999999988,9.8458766
2026-05-02 08:57:52.345,-0.1765197,-0.0980664999999988,9.8458766
2026-05-02 08:57:52.586,-0.1765197,-0.0980664999999988,9.8458766
