[System]
Platform=SEANO USV
Start_Time=2026-03-27 07:44:28
Timezone=WIB

[Sensor]
Name=IMU

[Columns]
Timestamp(WIB)	AccX	AccY	AccZ

[Data]
2026-03-27 07:44:30.346	-2.26533615	0.2255529500000012	9.551677100000001
2026-03-27 07:44:30.577	-2.26533615	0.2255529500000012	9.551677100000001
2026-03-27 07:44:30.821	-2.26533615	0.2255529500000012	9.551677100000001
2026-03-27 07:44:31.076	-2.26533615	0.2255529500000012	9.551677100000001
2026-03-27 07:44:31.322	-2.2555295	0.2255529500000012	9.551677100000001
2026-03-27 07:44:31.577	-2.2555295	0.2255529500000012	9.551677100000001
2026-03-27 07:44:31.820	-2.2555295	0.2255529500000012	9.551677100000001
2026-03-27 07:44:32.077	-2.2555295	0.2255529500000012	9.551677100000001
2026-03-27 07:44:32.322	-2.2555295	0.2255529500000012	9.551677100000001
2026-03-27 07:44:32.577	-2.2555295	0.2255529500000012	9.551677100000001
2026-03-27 07:44:32.821	-2.2555295	0.2255529500000012	9.551677100000001
2026-03-27 07:44:33.076	-2.2555295	0.2255529500000012	9.551677100000001
2026-03-27 07:44:33.321	-2.26533615	0.2255529500000012	9.551677100000001
2026-03-27 07:44:33.576	-2.26533615	0.2255529500000012	9.551677100000001
2026-03-27 07:44:33.821	-2.26533615	0.2255529500000012	9.551677100000001
2026-03-27 07:44:34.078	-2.26533615	0.2255529500000012	9.551677100000001
2026-03-27 07:44:34.320	-2.26533615	0.2353596000000012	9.551677100000001
2026-03-27 07:44:34.576	-2.26533615	0.2353596000000012	9.551677100000001
2026-03-27 07:44:34.819	-2.26533615	0.2255529500000012	9.551677100000001
2026-03-27 07:44:35.077	-2.26533615	0.2255529500000012	9.551677100000001
2026-03-27 07:44:35.322	-2.26533615	0.2255529500000012	9.551677100000001
2026-03-27 07:44:35.577	-2.26533615	0.2255529500000012	9.551677100000001
2026-03-27 07:44:35.821	-2.26533615	0.2255529500000012	9.551677100000001
2026-03-27 07:44:36.077	-2.26533615	0.2255529500000012	9.551677100000001
2026-03-27 07:44:36.322	-2.2555295	0.2255529500000012	9.551677100000001
2026-03-27 07:44:36.577	-2.2555295	0.2255529500000012	9.551677100000001
2026-03-27 07:44:36.821	-2.26533615	0.2255529500000012	9.551677100000001
2026-03-27 07:44:37.078	-2.26533615	0.2255529500000012	9.551677100000001
2026-03-27 07:44:37.320	-2.2555295	0.2255529500000012	9.551677100000001
2026-03-27 07:44:37.577	-2.2555295	0.2255529500000012	9.551677100000001
2026-03-27 07:44:37.820	-2.2555295	0.2255529500000012	9.551677100000001
2026-03-27 07:44:38.077	-2.2555295	0.2255529500000012	9.551677100000001
2026-03-27 07:44:38.322	-2.26533615	0.2255529500000012	9.551677100000001
2026-03-27 07:44:38.577	-2.26533615	0.2255529500000012	9.551677100000001
2026-03-27 07:44:38.822	-2.26533615	0.2255529500000012	9.551677100000001
2026-03-27 07:44:39.080	-2.26533615	0.2255529500000012	9.551677100000001
2026-03-27 07:44:39.320	-2.2555295	0.2255529500000012	9.551677100000001
2026-03-27 07:44:39.577	-2.2555295	0.2255529500000012	9.551677100000001
2026-03-27 07:44:39.821	-2.26533615	0.2255529500000012	9.551677100000001
2026-03-27 07:44:40.078	-2.26533615	0.2255529500000012	9.551677100000001
2026-03-27 07:44:40.321	-2.2555295	0.2255529500000012	9.551677100000001
2026-03-27 07:44:40.577	-2.2555295	0.2255529500000012	9.551677100000001
2026-03-27 07:44:40.820	-2.26533615	0.2255529500000012	9.551677100000001
2026-03-27 07:44:41.077	-2.26533615	0.2255529500000012	9.551677100000001
2026-03-27 07:44:41.319	-2.2555295	0.2255529500000012	9.551677100000001
2026-03-27 07:44:41.577	-2.2555295	0.2255529500000012	9.551677100000001
2026-03-27 07:44:41.822	-2.26533615	0.2255529500000012	9.551677100000001
2026-03-27 07:44:42.077	-2.26533615	0.2255529500000012	9.551677100000001
2026-03-27 07:44:42.325	-2.26533615	0.2255529500000012	9.551677100000001
2026-03-27 07:44:42.576	-2.26533615	0.2255529500000012	9.551677100000001
2026-03-27 07:44:42.824	-2.26533615	0.2255529500000012	9.551677100000001
2026-03-27 07:44:43.077	-2.26533615	0.2255529500000012	9.551677100000001
2026-03-27 07:44:43.321	-2.26533615	0.2255529500000012	9.551677100000001
2026-03-27 07:44:43.577	-2.26533615	0.2255529500000012	9.551677100000001
2026-03-27 07:44:43.820	-2.26533615	0.2255529500000012	9.551677100000001
2026-03-27 07:44:44.077	-2.26533615	0.2255529500000012	9.551677100000001
2026-03-27 07:44:44.327	-2.26533615	0.2255529500000012	9.551677100000001
2026-03-27 07:44:44.578	-2.26533615	0.2255529500000012	9.551677100000001
2026-03-27 07:44:44.820	-2.2555295	0.2255529500000012	9.551677100000001
2026-03-27 07:44:45.078	-2.2555295	0.2255529500000012	9.551677100000001
2026-03-27 07:44:45.321	-2.26533615	0.2255529500000012	9.551677100000001
2026-03-27 07:44:45.576	-2.26533615	0.2255529500000012	9.551677100000001
2026-03-27 07:44:45.821	-2.26533615	0.2255529500000012	9.551677100000001
2026-03-27 07:44:46.076	-2.26533615	0.2255529500000012	9.551677100000001
2026-03-27 07:44:46.321	-2.2555295	0.2255529500000012	9.551677100000001
2026-03-27 07:44:46.576	-2.2555295	0.2255529500000012	9.551677100000001
2026-03-27 07:44:46.820	-2.2555295	0.2255529500000012	9.551677100000001
2026-03-27 07:44:47.077	-2.2555295	0.2255529500000012	9.551677100000001
2026-03-27 07:44:47.322	-2.2555295	0.2255529500000012	9.551677100000001
2026-03-27 07:44:47.577	-2.2555295	0.2255529500000012	9.551677100000001
2026-03-27 07:44:47.822	-2.26533615	0.2255529500000012	9.551677100000001
2026-03-27 07:44:48.077	-2.26533615	0.2255529500000012	9.551677100000001
2026-03-27 07:44:48.321	-2.26533615	0.2353596000000012	9.551677100000001
2026-03-27 07:44:48.577	-2.26533615	0.2353596000000012	9.551677100000001
2026-03-27 07:44:48.822	-2.2555295	0.2255529500000012	9.551677100000001
2026-03-27 07:44:49.080	-2.2555295	0.2255529500000012	9.551677100000001
2026-03-27 07:44:49.320	-2.2751428000000002	0.2157463000000012	9.54187045
2026-03-27 07:44:49.577	-2.2751428000000002	0.2157463000000012	9.54187045
2026-03-27 07:44:49.821	-2.2751428000000002	0.2157463000000012	9.54187045
2026-03-27 07:44:50.081	-2.2751428000000002	0.2157463000000012	9.54187045
2026-03-27 07:44:50.321	-2.2751428000000002	0.2353596000000012	9.551677100000001
2026-03-27 07:44:50.578	-2.2751428000000002	0.2353596000000012	9.551677100000001
2026-03-27 07:44:50.822	-2.24572285	0.2157463000000012	9.54187045
2026-03-27 07:44:51.077	-2.24572285	0.2157463000000012	9.54187045
2026-03-27 07:44:51.319	-2.2751428000000002	0.2353596000000012	9.5712904
2026-03-27 07:44:51.577	-2.2751428000000002	0.2353596000000012	9.5712904
2026-03-27 07:44:51.822	-2.2555295	0.2157463000000012	9.54187045
2026-03-27 07:44:52.079	-2.2555295	0.2157463000000012	9.54187045
2026-03-27 07:44:52.320	-2.24572285	0.2059396500000012	9.551677100000001
2026-03-27 07:44:52.577	-2.24572285	0.2059396500000012	9.551677100000001
2026-03-27 07:44:52.821	-2.26533615	0.1961330000000012	9.54187045
2026-03-27 07:44:53.078	-2.26533615	0.1961330000000012	9.54187045
2026-03-27 07:44:53.326	-2.2751428000000002	0.2255529500000012	9.56148375
2026-03-27 07:44:53.577	-2.2751428000000002	0.2255529500000012	9.56148375
2026-03-27 07:44:53.822	-2.24572285	0.2255529500000012	9.54187045
2026-03-27 07:44:54.077	-2.24572285	0.2255529500000012	9.54187045
2026-03-27 07:44:54.321	-2.2751428000000002	0.2451662500000012	9.56148375
2026-03-27 07:44:54.577	-2.2751428000000002	0.2451662500000012	9.56148375
2026-03-27 07:44:54.820	-2.26533615	0.2451662500000012	9.551677100000001
2026-03-27 07:44:55.080	-2.26533615	0.2451662500000012	9.551677100000001
2026-03-27 07:44:55.323	-2.2359162	0.1961330000000012	9.54187045
2026-03-27 07:44:55.576	-2.2359162	0.1961330000000012	9.54187045
2026-03-27 07:44:55.821	-2.2555295	0.2451662500000012	9.5712904
2026-03-27 07:44:56.077	-2.2555295	0.2451662500000012	9.5712904
2026-03-27 07:44:56.323	-2.2555295	0.2255529500000012	9.551677100000001
2026-03-27 07:44:56.576	-2.2555295	0.2255529500000012	9.551677100000001
2026-03-27 07:44:56.821	-2.24572285	0.2451662500000012	9.56148375
2026-03-27 07:44:57.079	-2.24572285	0.2451662500000012	9.56148375
2026-03-27 07:44:57.319	-2.24572285	0.2059396500000012	9.54187045
2026-03-27 07:44:57.577	-2.24572285	0.2059396500000012	9.54187045
2026-03-27 07:44:57.822	-2.26533615	0.25497290000000117	9.551677100000001
2026-03-27 07:44:58.076	-2.26533615	0.25497290000000117	9.551677100000001
2026-03-27 07:44:58.320	-2.28494945	0.2353596000000012	9.56148375
2026-03-27 07:44:58.576	-2.28494945	0.2353596000000012	9.56148375
2026-03-27 07:44:58.823	-2.28494945	0.2353596000000012	9.551677100000001
2026-03-27 07:44:59.076	-2.28494945	0.2353596000000012	9.551677100000001
2026-03-27 07:44:59.322	-2.2751428000000002	0.2255529500000012	9.551677100000001
2026-03-27 07:44:59.576	-2.2751428000000002	0.2255529500000012	9.551677100000001
2026-03-27 07:44:59.824	-2.24572285	0.2157463000000012	9.551677100000001
2026-03-27 07:45:00.076	-2.24572285	0.2157463000000012	9.551677100000001
2026-03-27 07:45:00.323	-2.26533615	0.2353596000000012	9.5712904
2026-03-27 07:45:00.576	-2.26533615	0.2353596000000012	9.5712904
2026-03-27 07:45:00.822	-2.26533615	0.2353596000000012	9.56148375
2026-03-27 07:45:01.076	-2.26533615	0.2353596000000012	9.56148375
2026-03-27 07:45:01.319	-2.28494945	0.2353596000000012	9.56148375
2026-03-27 07:45:01.576	-2.28494945	0.2353596000000012	9.56148375
2026-03-27 07:45:01.822	-2.28494945	0.2255529500000012	9.551677100000001
2026-03-27 07:45:02.076	-2.28494945	0.2255529500000012	9.551677100000001
2026-03-27 07:45:02.322	-2.2555295	0.2157463000000012	9.551677100000001
2026-03-27 07:45:02.576	-2.2555295	0.2157463000000012	9.551677100000001
2026-03-27 07:45:02.819	-2.2555295	0.2157463000000012	9.551677100000001
2026-03-27 07:45:03.077	-2.2555295	0.2157463000000012	9.551677100000001
2026-03-27 07:45:03.320	-2.24572285	0.2353596000000012	9.56148375
2026-03-27 07:45:03.576	-2.24572285	0.2353596000000012	9.56148375
2026-03-27 07:45:03.820	-2.2751428000000002	0.2451662500000012	9.58109705
2026-03-27 07:45:04.076	-2.2751428000000002	0.2451662500000012	9.58109705
2026-03-27 07:45:04.321	-2.2751428000000002	0.2255529500000012	9.56148375
2026-03-27 07:45:04.576	-2.2751428000000002	0.2255529500000012	9.56148375
2026-03-27 07:45:04.824	-2.26533615	0.2255529500000012	9.551677100000001
2026-03-27 07:45:05.077	-2.26533615	0.2255529500000012	9.551677100000001
2026-03-27 07:45:05.324	-2.24572285	0.2059396500000012	9.54187045
2026-03-27 07:45:05.576	-2.24572285	0.2059396500000012	9.54187045
2026-03-27 07:45:05.820	-2.2947561	0.2353596000000012	9.551677100000001
2026-03-27 07:45:06.076	-2.2947561	0.2353596000000012	9.551677100000001
2026-03-27 07:45:06.322	-2.2751428000000002	0.2353596000000012	9.5712904
2026-03-27 07:45:06.578	-2.2751428000000002	0.2353596000000012	9.5712904
2026-03-27 07:45:06.823	-2.2359162	0.2157463000000012	9.54187045
2026-03-27 07:45:07.076	-2.2359162	0.2157463000000012	9.54187045
2026-03-27 07:45:07.322	-2.24572285	0.2157463000000012	9.551677100000001
2026-03-27 07:45:07.577	-2.24572285	0.2157463000000012	9.551677100000001
2026-03-27 07:45:07.820	-2.2751428000000002	0.2255529500000012	9.56148375
2026-03-27 07:45:08.077	-2.2751428000000002	0.2255529500000012	9.56148375
2026-03-27 07:45:08.320	-2.26533615	0.2353596000000012	9.551677100000001
2026-03-27 07:45:08.576	-2.26533615	0.2353596000000012	9.551677100000001
2026-03-27 07:45:08.822	-2.2751428000000002	0.2255529500000012	9.551677100000001
2026-03-27 07:45:09.077	-2.2751428000000002	0.2255529500000012	9.551677100000001
2026-03-27 07:45:09.322	-2.2555295	0.2157463000000012	9.551677100000001
2026-03-27 07:45:09.577	-2.2555295	0.2157463000000012	9.551677100000001
2026-03-27 07:45:09.824	-2.2555295	0.2157463000000012	9.551677100000001
2026-03-27 07:45:10.076	-2.2555295	0.2157463000000012	9.551677100000001
2026-03-27 07:45:10.327	-2.26533615	0.2255529500000012	9.54187045
2026-03-27 07:45:10.576	-2.26533615	0.2255529500000012	9.54187045
2026-03-27 07:45:10.820	-2.2751428000000002	0.2255529500000012	9.551677100000001
2026-03-27 07:45:11.076	-2.2751428000000002	0.2255529500000012	9.551677100000001
2026-03-27 07:45:11.320	-2.24572285	0.2255529500000012	9.5712904
2026-03-27 07:45:11.577	-2.24572285	0.2255529500000012	9.5712904
2026-03-27 07:45:11.819	-2.28494945	0.2353596000000012	9.551677100000001
2026-03-27 07:45:12.076	-2.28494945	0.2353596000000012	9.551677100000001
2026-03-27 07:45:12.321	-2.2751428000000002	0.2451662500000012	9.56148375
2026-03-27 07:45:12.577	-2.2751428000000002	0.2451662500000012	9.56148375
2026-03-27 07:45:12.820	-2.26533615	0.2255529500000012	9.5320638
2026-03-27 07:45:13.077	-2.26533615	0.2255529500000012	9.5320638
2026-03-27 07:45:13.321	-2.2555295	0.2255529500000012	9.551677100000001
2026-03-27 07:45:13.577	-2.2555295	0.2255529500000012	9.551677100000001
2026-03-27 07:45:13.822	-2.2751428000000002	0.2451662500000012	9.5712904
2026-03-27 07:45:14.076	-2.2751428000000002	0.2451662500000012	9.5712904
2026-03-27 07:45:14.320	-2.2947561	0.2451662500000012	9.54187045
2026-03-27 07:45:14.577	-2.2947561	0.2451662500000012	9.54187045
2026-03-27 07:45:14.822	-2.2555295	0.2255529500000012	9.5320638
2026-03-27 07:45:15.077	-2.2555295	0.2255529500000012	9.5320638
2026-03-27 07:45:15.320	-2.24572285	0.2059396500000012	9.54187045
2026-03-27 07:45:15.580	-2.24572285	0.2059396500000012	9.54187045
2026-03-27 07:45:15.820	-2.26533615	0.2255529500000012	9.551677100000001
2026-03-27 07:45:16.077	-2.26533615	0.2255529500000012	9.551677100000001
2026-03-27 07:45:16.320	-2.2751428000000002	0.2353596000000012	9.56148375
2026-03-27 07:45:16.576	-2.2751428000000002	0.2353596000000012	9.56148375
2026-03-27 07:45:16.821	-2.28494945	0.2451662500000012	9.5712904
2026-03-27 07:45:17.081	-2.28494945	0.2451662500000012	9.5712904
2026-03-27 07:45:17.319	-2.26533615	0.2157463000000012	9.54187045
2026-03-27 07:45:17.577	-2.26533615	0.2157463000000012	9.54187045
2026-03-27 07:45:17.824	-2.24572285	0.2157463000000012	9.54187045
2026-03-27 07:45:18.076	-2.24572285	0.2157463000000012	9.54187045
2026-03-27 07:45:18.320	-2.2751428000000002	0.2353596000000012	9.56148375
2026-03-27 07:45:18.575	-2.2751428000000002	0.2353596000000012	9.56148375
2026-03-27 07:45:18.819	-2.2751428000000002	0.2451662500000012	9.58109705
2026-03-27 07:45:19.077	-2.2751428000000002	0.2451662500000012	9.58109705
2026-03-27 07:45:19.320	-2.2555295	0.2451662500000012	9.56148375
2026-03-27 07:45:19.575	-2.2555295	0.2451662500000012	9.56148375
2026-03-27 07:45:19.820	-2.2359162	0.2059396500000012	9.56148375
2026-03-27 07:45:20.076	-2.2359162	0.2059396500000012	9.56148375
2026-03-27 07:45:20.323	-2.2751428000000002	0.2353596000000012	9.551677100000001
2026-03-27 07:45:20.576	-2.2751428000000002	0.2353596000000012	9.551677100000001
2026-03-27 07:45:20.820	-2.28494945	0.2353596000000012	9.54187045
2026-03-27 07:45:21.076	-2.28494945	0.2353596000000012	9.54187045
2026-03-27 07:45:21.322	-2.2555295	0.20593965000000114	9.52225715
2026-03-27 07:45:21.575	-2.2555295	0.20593965000000114	9.52225715
2026-03-27 07:45:21.821	-2.2751428000000002	0.2451662500000012	9.56148375
2026-03-27 07:45:22.076	-2.2751428000000002	0.2451662500000012	9.56148375
2026-03-27 07:45:22.329	-2.26533615	0.2255529500000012	9.56148375
2026-03-27 07:45:22.576	-2.26533615	0.2255529500000012	9.56148375
2026-03-27 07:45:22.830	-2.28494945	0.25497290000000117	9.56148375
2026-03-27 07:45:23.075	-2.28494945	0.25497290000000117	9.56148375
2026-03-27 07:45:23.323	-2.2555295	0.2059396500000012	9.5320638
2026-03-27 07:45:23.576	-2.2555295	0.2059396500000012	9.5320638
2026-03-27 07:45:23.820	-2.2555295	0.21574630000000114	9.52225715
2026-03-27 07:45:24.077	-2.2555295	0.21574630000000114	9.52225715
2026-03-27 07:45:24.321	-2.2555295	0.2353596000000012	9.56148375
2026-03-27 07:45:24.579	-2.2555295	0.2353596000000012	9.56148375
2026-03-27 07:45:24.821	-2.26533615	0.2255529500000012	9.54187045
2026-03-27 07:45:25.076	-2.26533615	0.2255529500000012	9.54187045
2026-03-27 07:45:25.319	-2.2555295	0.2157463000000012	9.5320638
2026-03-27 07:45:25.576	-2.2555295	0.2157463000000012	9.5320638
2026-03-27 07:45:25.819	-2.2555295	0.22555295000000114	9.52225715
2026-03-27 07:45:26.076	-2.2555295	0.22555295000000114	9.52225715
2026-03-27 07:45:26.322	-2.2751428000000002	0.2353596000000012	9.551677100000001
2026-03-27 07:45:26.576	-2.2751428000000002	0.2353596000000012	9.551677100000001
2026-03-27 07:45:26.821	-2.26533615	0.2255529500000012	9.5320638
2026-03-27 07:45:27.076	-2.26533615	0.2255529500000012	9.5320638
2026-03-27 07:45:27.320	-2.26533615	0.2451662500000012	9.54187045
2026-03-27 07:45:27.576	-2.26533615	0.2451662500000012	9.54187045
2026-03-27 07:45:27.822	-2.2555295	0.2255529500000012	9.5712904
2026-03-27 07:45:28.076	-2.2555295	0.2255529500000012	9.5712904
2026-03-27 07:45:28.321	-2.2555295	0.2255529500000012	9.551677100000001
2026-03-27 07:45:28.575	-2.2555295	0.2255529500000012	9.551677100000001
2026-03-27 07:45:28.821	-2.26533615	0.2451662500000012	9.5712904
2026-03-27 07:45:29.079	-2.26533615	0.2451662500000012	9.5712904
2026-03-27 07:45:29.321	-2.24572285	0.2843928500000012	9.62032365
2026-03-27 07:45:29.576	-2.24572285	0.2843928500000012	9.62032365
2026-03-27 07:45:29.818	-2.4124359	-1.1473780499999988	9.1986377
2026-03-27 07:45:30.076	-2.4124359	-1.1473780499999988	9.1986377
2026-03-27 07:45:30.326	-2.28494945	0.2843928500000012	9.65955025
2026-03-27 07:45:30.576	-2.28494945	0.2843928500000012	9.65955025
2026-03-27 07:45:30.818	-2.18688295	0.03922660000000116	9.4928372
2026-03-27 07:45:31.076	-2.18688295	0.03922660000000116	9.4928372
2026-03-27 07:45:31.329	-2.2359162	0.058839900000001166	9.56148375
2026-03-27 07:45:31.576	-2.2359162	0.058839900000001166	9.56148375
2026-03-27 07:45:31.819	-2.2359162	0.058839900000001166	9.56148375
2026-03-27 07:45:32.076	-2.2359162	0.058839900000001166	9.56148375
2026-03-27 07:45:32.322	-2.2359162	0.058839900000001166	9.56148375
2026-03-27 07:45:32.576	-2.2359162	0.058839900000001166	9.56148375
2026-03-27 07:45:32.821	-2.2359162	0.058839900000001166	9.56148375
2026-03-27 07:45:33.077	-2.2359162	0.058839900000001166	9.56148375
2026-03-27 07:45:33.321	-2.24572285	0.049033250000001166	9.56148375
2026-03-27 07:45:33.581	-2.24572285	0.049033250000001166	9.56148375
2026-03-27 07:45:33.821	-2.2359162	0.07845320000000117	9.56148375
2026-03-27 07:45:34.076	-2.2359162	0.07845320000000117	9.56148375
2026-03-27 07:45:34.319	-2.24572285	0.058839900000001166	9.551677100000001
2026-03-27 07:45:34.576	-2.24572285	0.058839900000001166	9.551677100000001
2026-03-27 07:45:34.819	-2.24572285	0.058839900000001166	9.56148375
2026-03-27 07:45:35.076	-2.24572285	0.058839900000001166	9.56148375
2026-03-27 07:45:35.318	-2.24572285	0.049033250000001166	9.551677100000001
2026-03-27 07:45:35.576	-2.24572285	0.049033250000001166	9.551677100000001
2026-03-27 07:45:35.822	-2.2359162	0.08825985000000117	9.5712904
2026-03-27 07:45:36.076	-2.2359162	0.08825985000000117	9.5712904
2026-03-27 07:45:36.320	-2.2555295	0.049033250000001166	9.56148375
2026-03-27 07:45:36.576	-2.2555295	0.049033250000001166	9.56148375
2026-03-27 07:45:36.821	-2.0593965	0.37265270000000117	9.6497436
2026-03-27 07:45:37.076	-2.0593965	0.37265270000000117	9.6497436
2026-03-27 07:45:37.320	-2.2751428000000002	0.5393657500000012	9.7674234
2026-03-27 07:45:37.576	-2.2751428000000002	0.5393657500000012	9.7674234
2026-03-27 07:45:37.821	-1.8240369	0.009806650000001244	10.14988275
2026-03-27 07:45:38.079	-1.8240369	0.009806650000001244	10.14988275
2026-03-27 07:45:38.319	-1.4709975	-0.2941994999999988	9.99297635
2026-03-27 07:45:38.576	-1.4709975	-0.2941994999999988	9.99297635
2026-03-27 07:45:38.821	-1.95152335	-1.1866046499999987	10.7480884
2026-03-27 07:45:39.076	-1.95152335	-1.1866046499999987	10.7480884
2026-03-27 07:45:39.319	-2.01036325	0.2843928500000012	9.610517
2026-03-27 07:45:39.577	-2.01036325	0.2843928500000012	9.610517
2026-03-27 07:45:39.819	-1.9221034000000001	0.6962721500000011	9.40457735
2026-03-27 07:45:40.076	-1.9221034000000001	0.6962721500000011	9.40457735
2026-03-27 07:45:40.319	-2.3143694	0.7943386500000011	9.18883105
2026-03-27 07:45:40.577	-2.3143694	0.7943386500000011	9.18883105
2026-03-27 07:45:40.820	-0.5491724	-1.2356378999999988	9.0025047
2026-03-27 07:45:41.076	-0.5491724	-1.2356378999999988	9.0025047
2026-03-27 07:45:41.320	-1.81423025	0.45110590000000117	9.80665
2026-03-27 07:45:41.576	-1.81423025	0.45110590000000117	9.80665
2026-03-27 07:45:41.818	-1.69655045	0.2843928500000012	9.5909037
2026-03-27 07:45:42.076	-1.69655045	0.2843928500000012	9.5909037
2026-03-27 07:45:42.321	-1.73577705	-0.14709974999999878	9.9635564
2026-03-27 07:45:42.576	-1.73577705	-0.14709974999999878	9.9635564
2026-03-27 07:45:42.821	-1.0198916	-0.13729309999999886	9.34573745
2026-03-27 07:45:43.075	-1.0198916	-0.13729309999999886	9.34573745
2026-03-27 07:45:43.321	-1.61809725	1.3337044000000011	9.4536106
2026-03-27 07:45:43.576	-1.61809725	1.3337044000000011	9.4536106
2026-03-27 07:45:43.820	-1.8240369	1.088538150000001	9.34573745
2026-03-27 07:45:44.075	-1.8240369	1.088538150000001	9.34573745
2026-03-27 07:45:44.323	-2.0986231	0.4020726500000012	9.5124505
2026-03-27 07:45:44.575	-2.0986231	0.4020726500000012	9.5124505
2026-03-27 07:45:44.825	-2.1378497	0.4412992500000012	9.67916355
2026-03-27 07:45:45.075	-2.1378497	0.4412992500000012	9.67916355
2026-03-27 07:45:45.320	-1.6082906000000001	-0.08825984999999884	9.50264385
2026-03-27 07:45:45.576	-1.6082906000000001	-0.08825984999999884	9.50264385
2026-03-27 07:45:45.819	-2.04958985	-0.039226599999998855	9.36535075
2026-03-27 07:45:46.076	-2.04958985	-0.039226599999998855	9.36535075
2026-03-27 07:45:46.319	-2.20649625	0.13729310000000117	9.58109705
2026-03-27 07:45:46.575	-2.20649625	0.13729310000000117	9.58109705
2026-03-27 07:45:46.820	-2.1966896	0.11767980000000117	9.58109705
2026-03-27 07:45:47.076	-2.1966896	0.11767980000000117	9.58109705
2026-03-27 07:45:47.321	-2.18688295	0.12748645000000117	9.5712904
2026-03-27 07:45:47.576	-2.18688295	0.12748645000000117	9.5712904
2026-03-27 07:45:47.821	-2.18688295	0.11767980000000117	9.5712904
2026-03-27 07:45:48.076	-2.18688295	0.11767980000000117	9.5712904
2026-03-27 07:45:48.318	-2.1966896	0.12748645000000117	9.5712904
2026-03-27 07:45:48.575	-2.1966896	0.12748645000000117	9.5712904
2026-03-27 07:45:48.818	-2.18688295	0.12748645000000117	9.5712904
2026-03-27 07:45:49.075	-2.18688295	0.12748645000000117	9.5712904
2026-03-27 07:45:49.323	-2.1770763	0.13729310000000117	9.5712904
2026-03-27 07:45:49.575	-2.1770763	0.13729310000000117	9.5712904
2026-03-27 07:45:51.691	-2.18688295	0.13729310000000117	9.5712904
2026-03-27 07:45:51.700	-2.1966896	0.12748645000000117	9.551677100000001
2026-03-27 07:45:51.706	-2.1966896	0.12748645000000117	9.551677100000001
2026-03-27 07:45:51.708	-2.18688295	0.11767980000000117	9.56148375
2026-03-27 07:45:51.710	-2.18688295	0.11767980000000117	9.56148375
2026-03-27 07:45:51.819	-2.18688295	0.12748645000000117	9.5712904
2026-03-27 07:45:52.076	-2.18688295	0.12748645000000117	9.5712904
2026-03-27 07:45:52.320	-2.1770763	0.12748645000000117	9.5712904
2026-03-27 07:45:52.575	-2.1770763	0.12748645000000117	9.5712904
2026-03-27 07:45:52.820	-2.1966896	0.11767980000000117	9.58109705
2026-03-27 07:45:53.077	-2.1966896	0.11767980000000117	9.58109705
2026-03-27 07:45:53.322	-2.18688295	0.5197524500000011	9.54187045
2026-03-27 07:45:53.577	-2.18688295	0.5197524500000011	9.54187045
2026-03-27 07:45:53.822	-1.77500365	0.7256921000000012	9.52225715
2026-03-27 07:45:54.076	-1.77500365	0.7256921000000012	9.52225715
2026-03-27 07:45:54.319	-1.7259704	0.019613300000001138	9.2770909
2026-03-27 07:45:54.575	-1.7259704	0.019613300000001138	9.2770909
2026-03-27 07:45:54.820	-2.1378497	0.45110590000000117	9.60071035
2026-03-27 07:45:55.076	-2.1378497	0.45110590000000117	9.60071035
2026-03-27 07:45:55.320	-2.04958985	-0.7649186999999987	10.24794925
2026-03-27 07:45:55.576	-2.04958985	-0.7649186999999987	10.24794925
2026-03-27 07:45:55.820	-2.34378935	1.5102241000000012	9.5320638
2026-03-27 07:45:56.076	-2.34378935	1.5102241000000012	9.5320638
2026-03-27 07:45:56.322	-1.8632635	1.0412394755988226e-15	8.50236555
2026-03-27 07:45:56.576	-1.8632635	1.0412394755988226e-15	8.50236555
2026-03-27 07:45:56.821	-2.10842975	0.3824593500000012	9.551677100000001
2026-03-27 07:45:57.078	-2.10842975	0.3824593500000012	9.551677100000001
2026-03-27 07:45:57.323	-2.0593965	0.4216859500000012	9.58109705
2026-03-27 07:45:57.575	-2.0593965	0.4216859500000012	9.58109705
2026-03-27 07:45:57.817	-2.08881645	0.3824593500000012	9.58109705
2026-03-27 07:45:58.075	-2.08881645	0.3824593500000012	9.58109705
2026-03-27 07:45:58.322	-2.10842975	0.3824593500000012	9.58109705
2026-03-27 07:45:58.576	-2.10842975	0.3824593500000012	9.58109705
2026-03-27 07:45:58.822	-2.1770763	0.5785923500000012	9.6693569
2026-03-27 07:45:59.075	-2.1770763	0.5785923500000012	9.6693569
2026-03-27 07:45:59.320	-1.44157755	-0.7453053999999989	9.52225715
2026-03-27 07:45:59.576	-1.44157755	-0.7453053999999989	9.52225715
2026-03-27 07:45:59.818	-2.0201699	0.3824593500000012	9.5909037
2026-03-27 07:46:00.075	-2.0201699	0.3824593500000012	9.5909037
2026-03-27 07:46:00.318	-2.02997655	0.37265270000000117	9.58109705
2026-03-27 07:46:00.576	-2.02997655	0.37265270000000117	9.58109705
2026-03-27 07:46:00.823	-2.0201699	0.37265270000000117	9.60071035
2026-03-27 07:46:01.075	-2.0201699	0.37265270000000117	9.60071035
2026-03-27 07:46:01.319	-2.0201699	0.3824593500000012	9.60071035
2026-03-27 07:46:01.576	-2.0201699	0.3824593500000012	9.60071035
2026-03-27 07:46:01.821	-2.0397832	0.4020726500000012	9.5909037
2026-03-27 07:46:02.075	-2.0397832	0.4020726500000012	9.5909037
2026-03-27 07:46:02.319	-2.0397832	0.3824593500000012	9.5909037
2026-03-27 07:46:02.575	-2.0397832	0.3824593500000012	9.5909037
2026-03-27 07:46:02.825	-2.02997655	0.39226600000000117	9.610517
2026-03-27 07:46:03.076	-2.02997655	0.39226600000000117	9.610517
2026-03-27 07:46:03.318	-2.02997655	0.3628460500000012	9.5909037
2026-03-27 07:46:03.575	-2.02997655	0.3628460500000012	9.5909037
2026-03-27 07:46:03.823	-2.0397832	0.4020726500000012	9.5909037
2026-03-27 07:46:04.076	-2.0397832	0.4020726500000012	9.5909037
2026-03-27 07:46:04.319	-2.0397832	0.3824593500000012	9.5909037
2026-03-27 07:46:04.574	-2.0397832	0.3824593500000012	9.5909037
2026-03-27 07:46:04.817	-2.02997655	0.41187930000000117	9.5909037
2026-03-27 07:46:05.076	-2.02997655	0.41187930000000117	9.5909037
2026-03-27 07:46:05.322	-2.0397832	0.3628460500000012	9.58109705
2026-03-27 07:46:05.575	-2.0397832	0.3628460500000012	9.58109705
2026-03-27 07:46:05.819	-2.0397832	0.37265270000000117	9.5909037
2026-03-27 07:46:06.079	-2.0397832	0.37265270000000117	9.5909037
2026-03-27 07:46:06.320	-2.0397832	0.4020726500000012	9.5909037
2026-03-27 07:46:06.574	-2.0397832	0.4020726500000012	9.5909037
2026-03-27 07:46:06.819	-1.96133	0.2647795500000012	9.551677100000001
2026-03-27 07:46:07.077	-1.96133	0.2647795500000012	9.551677100000001
2026-03-27 07:46:07.322	-2.0790098	0.3628460500000012	9.5909037
2026-03-27 07:46:07.574	-2.0790098	0.3628460500000012	9.5909037
2026-03-27 07:46:07.817	-2.04958985	0.3628460500000012	9.58109705
2026-03-27 07:46:08.075	-2.04958985	0.3628460500000012	9.58109705
2026-03-27 07:46:08.317	-2.0397832	0.39226600000000117	9.62032365
2026-03-27 07:46:08.575	-2.0397832	0.39226600000000117	9.62032365
2026-03-27 07:46:08.822	-2.04958985	0.37265270000000117	9.56148375
2026-03-27 07:46:09.076	-2.04958985	0.37265270000000117	9.56148375
2026-03-27 07:46:09.321	-2.0201699	0.35303940000000117	9.62032365
2026-03-27 07:46:09.576	-2.0201699	0.35303940000000117	9.62032365
2026-03-27 07:46:09.823	-2.04958985	0.3628460500000012	9.62032365
2026-03-27 07:46:10.077	-2.04958985	0.3628460500000012	9.62032365
2026-03-27 07:46:10.320	-2.04958985	0.39226600000000117	9.58109705
2026-03-27 07:46:10.575	-2.04958985	0.39226600000000117	9.58109705
2026-03-27 07:46:10.819	-2.04958985	0.3628460500000012	9.60071035
2026-03-27 07:46:11.076	-2.04958985	0.3628460500000012	9.60071035
2026-03-27 07:46:11.320	-2.0397832	0.39226600000000117	9.5909037
2026-03-27 07:46:11.575	-2.0397832	0.39226600000000117	9.5909037
2026-03-27 07:46:11.824	-2.04958985	0.39226600000000117	9.58109705
2026-03-27 07:46:12.079	-2.04958985	0.39226600000000117	9.58109705
2026-03-27 07:46:12.323	-2.0397832	0.39226600000000117	9.5909037
2026-03-27 07:46:12.575	-2.0397832	0.39226600000000117	9.5909037
2026-03-27 07:46:12.824	-2.04958985	0.3824593500000012	9.5909037
2026-03-27 07:46:13.076	-2.04958985	0.3824593500000012	9.5909037
2026-03-27 07:46:13.319	-2.02997655	0.39226600000000117	9.5909037
2026-03-27 07:46:13.575	-2.02997655	0.39226600000000117	9.5909037
2026-03-27 07:46:13.820	-2.0397832	0.3824593500000012	9.60071035
2026-03-27 07:46:14.076	-2.0397832	0.3824593500000012	9.60071035
2026-03-27 07:46:14.318	-2.0397832	0.3824593500000012	9.5909037
2026-03-27 07:46:14.575	-2.0397832	0.3824593500000012	9.5909037
2026-03-27 07:46:14.817	-2.0397832	0.3824593500000012	9.5909037
2026-03-27 07:46:15.075	-2.0397832	0.3824593500000012	9.5909037
2026-03-27 07:46:15.319	-2.0397832	0.3824593500000012	9.5909037
2026-03-27 07:46:15.575	-2.0397832	0.3824593500000012	9.5909037
2026-03-27 07:46:15.818	-2.0397832	0.3824593500000012	9.5909037
2026-03-27 07:46:16.076	-2.0397832	0.3824593500000012	9.5909037
2026-03-27 07:46:16.322	-2.0397832	0.37265270000000117	9.5909037
2026-03-27 07:46:16.578	-2.0397832	0.37265270000000117	9.5909037
2026-03-27 07:46:16.820	-2.04958985	0.3824593500000012	9.5909037
2026-03-27 07:46:17.075	-2.04958985	0.3824593500000012	9.5909037
2026-03-27 07:46:17.318	-2.0397832	0.39226600000000117	9.5909037
2026-03-27 07:46:17.575	-2.0397832	0.39226600000000117	9.5909037
2026-03-27 07:46:17.818	-2.0397832	0.39226600000000117	9.5909037
2026-03-27 07:46:18.077	-2.0397832	0.39226600000000117	9.5909037
2026-03-27 07:46:18.322	-2.0397832	0.39226600000000117	9.5909037
2026-03-27 07:46:18.575	-2.0397832	0.39226600000000117	9.5909037
2026-03-27 07:46:18.819	-2.0397832	0.3824593500000012	9.5909037
2026-03-27 07:46:19.076	-2.0397832	0.3824593500000012	9.5909037
2026-03-27 07:46:19.323	-2.0397832	0.3824593500000012	9.5909037
2026-03-27 07:46:19.575	-2.0397832	0.3824593500000012	9.5909037
2026-03-27 07:46:19.820	-2.0397832	0.39226600000000117	9.5909037
2026-03-27 07:46:20.075	-2.0397832	0.39226600000000117	9.5909037
2026-03-27 07:46:20.318	-2.0397832	0.3824593500000012	9.58109705
2026-03-27 07:46:20.575	-2.0397832	0.3824593500000012	9.58109705
2026-03-27 07:46:20.818	-2.0397832	0.3824593500000012	9.5909037
2026-03-27 07:46:21.078	-2.0397832	0.3824593500000012	9.5909037
2026-03-27 07:46:21.321	-2.0397832	0.3824593500000012	9.5909037
2026-03-27 07:46:21.574	-2.0397832	0.3824593500000012	9.5909037
2026-03-27 07:46:21.819	-2.0397832	0.3824593500000012	9.5909037
2026-03-27 07:46:22.075	-2.0397832	0.3824593500000012	9.5909037
2026-03-27 07:46:22.320	-2.0397832	0.39226600000000117	9.5909037
2026-03-27 07:46:22.575	-2.0397832	0.39226600000000117	9.5909037
2026-03-27 07:46:22.818	-2.0397832	0.3824593500000012	9.58109705
2026-03-27 07:46:23.075	-2.0397832	0.3824593500000012	9.58109705
2026-03-27 07:46:23.327	-2.0397832	0.39226600000000117	9.58109705
2026-03-27 07:46:23.575	-2.0397832	0.39226600000000117	9.58109705
2026-03-27 07:46:23.820	-2.0397832	0.3824593500000012	9.5909037
2026-03-27 07:46:24.075	-2.0397832	0.3824593500000012	9.5909037
2026-03-27 07:46:24.319	-2.04958985	0.3824593500000012	9.5909037
2026-03-27 07:46:24.575	-2.04958985	0.3824593500000012	9.5909037
2026-03-27 07:46:24.819	-2.0397832	0.39226600000000117	9.5909037
2026-03-27 07:46:25.075	-2.0397832	0.39226600000000117	9.5909037
2026-03-27 07:46:25.321	-2.0397832	0.3824593500000012	9.5909037
2026-03-27 07:46:25.578	-2.0397832	0.3824593500000012	9.5909037
2026-03-27 07:46:25.820	-2.0397832	0.39226600000000117	9.58109705
2026-03-27 07:46:26.075	-2.0397832	0.39226600000000117	9.58109705
2026-03-27 07:46:26.319	-2.0397832	0.39226600000000117	9.58109705
2026-03-27 07:46:26.574	-2.0397832	0.39226600000000117	9.58109705
2026-03-27 07:46:26.818	-2.0397832	0.39226600000000117	9.5909037
2026-03-27 07:46:27.075	-2.0397832	0.39226600000000117	9.5909037
2026-03-27 07:46:27.318	-2.0397832	0.3824593500000012	9.58109705
2026-03-27 07:46:27.574	-2.0397832	0.3824593500000012	9.58109705
2026-03-27 07:46:27.822	-2.0397832	0.39226600000000117	9.5909037
2026-03-27 07:46:28.075	-2.0397832	0.39226600000000117	9.5909037
2026-03-27 07:46:28.318	-2.0397832	0.3824593500000012	9.5909037
2026-03-27 07:46:28.574	-2.0397832	0.3824593500000012	9.5909037
2026-03-27 07:46:28.820	-2.0397832	0.39226600000000117	9.5909037
2026-03-27 07:46:29.074	-2.0397832	0.39226600000000117	9.5909037
2026-03-27 07:46:29.321	-2.0397832	0.39226600000000117	9.5909037
2026-03-27 07:46:29.574	-2.0397832	0.39226600000000117	9.5909037
2026-03-27 07:46:29.821	-2.0397832	0.3824593500000012	9.5909037
2026-03-27 07:46:30.077	-2.0397832	0.3824593500000012	9.5909037
2026-03-27 07:46:30.320	-2.0397832	0.3824593500000012	9.58109705
2026-03-27 07:46:30.574	-2.0397832	0.3824593500000012	9.58109705
2026-03-27 07:46:30.819	-2.0397832	0.39226600000000117	9.5909037
2026-03-27 07:46:31.074	-2.0397832	0.39226600000000117	9.5909037
2026-03-27 07:46:31.320	-2.04958985	0.3824593500000012	9.58109705
2026-03-27 07:46:31.575	-2.04958985	0.3824593500000012	9.58109705
2026-03-27 07:46:31.821	-2.0397832	0.3824593500000012	9.58109705
2026-03-27 07:46:32.074	-2.0397832	0.3824593500000012	9.58109705
2026-03-27 07:46:32.326	-2.0397832	0.37265270000000117	9.58109705
2026-03-27 07:46:32.575	-2.0397832	0.37265270000000117	9.58109705
2026-03-27 07:46:32.818	-2.0397832	0.3824593500000012	9.5909037
2026-03-27 07:46:33.074	-2.0397832	0.3824593500000012	9.5909037
2026-03-27 07:46:33.318	-2.04958985	0.4216859500000012	9.5909037
2026-03-27 07:46:33.574	-2.04958985	0.4216859500000012	9.5909037
2026-03-27 07:46:33.820	-2.157463	-0.4118792999999989	9.38496405
2026-03-27 07:46:34.074	-2.157463	-0.4118792999999989	9.38496405
2026-03-27 07:46:34.319	-1.93191005	0.2255529500000012	9.5320638
2026-03-27 07:46:34.577	-1.93191005	0.2255529500000012	9.5320638
2026-03-27 07:46:34.823	-1.79461695	0.04903325000000119	9.639936950000001
2026-03-27 07:46:35.074	-1.79461695	0.04903325000000119	9.639936950000001
2026-03-27 07:46:35.319	-2.01036325	0.07845320000000118	9.71839015
2026-03-27 07:46:35.574	-2.01036325	0.07845320000000118	9.71839015
2026-03-27 07:46:35.820	-1.99074995	0.09806650000000117	9.5712904
2026-03-27 07:46:36.074	-1.99074995	0.09806650000000117	9.5712904
2026-03-27 07:46:36.319	-1.97113665	0.03922660000000117	9.6301303
2026-03-27 07:46:36.575	-1.97113665	0.03922660000000117	9.6301303
2026-03-27 07:46:36.824	-1.93191005	0.07845320000000118	9.610517
2026-03-27 07:46:37.074	-1.93191005	0.07845320000000118	9.610517
2026-03-27 07:46:37.318	-1.93191005	0.07845320000000117	9.60071035
2026-03-27 07:46:37.574	-1.93191005	0.07845320000000117	9.60071035
2026-03-27 07:46:37.818	-2.0397832	1.1841546977398374e-15	9.6693569
2026-03-27 07:46:38.074	-2.0397832	1.1841546977398374e-15	9.6693569
2026-03-27 07:46:38.317	-2.04958985	0.3432327500000012	9.65955025
2026-03-27 07:46:38.574	-2.04958985	0.3432327500000012	9.65955025
2026-03-27 07:46:38.820	-2.06920315	0.11767980000000117	9.551677100000001
2026-03-27 07:46:39.078	-2.06920315	0.11767980000000117	9.551677100000001
2026-03-27 07:46:39.321	-2.10842975	0.14709975000000117	9.60071035
2026-03-27 07:46:39.574	-2.10842975	0.14709975000000117	9.60071035
2026-03-27 07:46:39.818	-2.1182364	0.1765197000000012	9.58109705
2026-03-27 07:46:40.074	-2.1182364	0.1765197000000012	9.58109705
2026-03-27 07:46:40.318	-2.1182364	0.1667130500000012	9.5712904
2026-03-27 07:46:40.574	-2.1182364	0.1667130500000012	9.5712904
2026-03-27 07:46:40.818	-2.1182364	0.1961330000000012	9.58109705
2026-03-27 07:46:41.074	-2.1182364	0.1961330000000012	9.58109705
2026-03-27 07:46:41.326	-2.0593965	0.10787315000000117	9.5320638
2026-03-27 07:46:41.575	-2.0593965	0.10787315000000117	9.5320638
2026-03-27 07:46:41.817	-2.12804305	0.1961330000000012	9.58109705
2026-03-27 07:46:42.074	-2.12804305	0.1961330000000012	9.58109705
2026-03-27 07:46:42.318	-2.1182364	0.2059396500000012	9.5712904
2026-03-27 07:46:42.575	-2.1182364	0.2059396500000012	9.5712904
2026-03-27 07:46:42.819	-2.10842975	0.2353596000000012	9.551677100000001
2026-03-27 07:46:43.074	-2.10842975	0.2353596000000012	9.551677100000001
2026-03-27 07:46:43.320	-2.14765635	0.2843928500000012	9.551677100000001
2026-03-27 07:46:43.577	-2.14765635	0.2843928500000012	9.551677100000001
2026-03-27 07:46:43.822	-2.157463	0.25497290000000117	9.551677100000001
2026-03-27 07:46:44.074	-2.157463	0.25497290000000117	9.551677100000001
2026-03-27 07:46:44.319	-2.14765635	0.2255529500000012	9.5712904
2026-03-27 07:46:44.574	-2.14765635	0.2255529500000012	9.5712904
2026-03-27 07:46:44.817	-2.1378497	0.2647795500000012	9.56148375
2026-03-27 07:46:45.074	-2.1378497	0.2647795500000012	9.56148375
2026-03-27 07:46:45.319	-2.14765635	0.2353596000000012	9.56148375
2026-03-27 07:46:45.574	-2.14765635	0.2353596000000012	9.56148375
2026-03-27 07:46:45.822	-2.14765635	0.2353596000000012	9.551677100000001
2026-03-27 07:46:46.075	-2.14765635	0.2353596000000012	9.551677100000001
2026-03-27 07:46:46.319	-2.14765635	0.1961330000000012	9.56148375
2026-03-27 07:46:46.574	-2.14765635	0.1961330000000012	9.56148375
2026-03-27 07:46:46.817	-2.16726965	0.2255529500000012	9.56148375
2026-03-27 07:46:47.075	-2.16726965	0.2255529500000012	9.56148375
2026-03-27 07:46:47.322	-2.04958985	0.06864655000000118	9.60071035
2026-03-27 07:46:47.575	-2.04958985	0.06864655000000118	9.60071035
2026-03-27 07:46:47.819	-2.06920315	-0.11767979999999882	9.67916355
2026-03-27 07:46:48.077	-2.06920315	-0.11767979999999882	9.67916355
2026-03-27 07:46:48.321	-2.06920315	0.009806650000001162	9.50264385
2026-03-27 07:46:48.573	-2.06920315	0.009806650000001162	9.50264385
2026-03-27 07:46:48.816	-2.0593965	0.09806650000000117	9.5124505
2026-03-27 07:46:49.074	-2.0593965	0.09806650000000117	9.5124505
2026-03-27 07:46:49.318	-2.1378497	0.1961330000000012	9.5712904
2026-03-27 07:46:49.573	-2.1378497	0.1961330000000012	9.5712904
2026-03-27 07:46:49.819	-2.18688295	0.13729310000000117	9.56148375
2026-03-27 07:46:50.075	-2.18688295	0.13729310000000117	9.56148375
2026-03-27 07:46:50.324	-2.18688295	0.14709975000000117	9.58109705
2026-03-27 07:46:50.573	-2.18688295	0.14709975000000117	9.58109705
2026-03-27 07:46:50.818	-2.18688295	0.12748645000000117	9.551677100000001
2026-03-27 07:46:51.074	-2.18688295	0.12748645000000117	9.551677100000001
2026-03-27 07:46:51.322	-2.16726965	0.14709975000000117	9.58109705
2026-03-27 07:46:51.573	-2.16726965	0.14709975000000117	9.58109705
2026-03-27 07:46:51.817	-2.1966896	0.12748645000000117	9.551677100000001
2026-03-27 07:46:52.073	-2.1966896	0.12748645000000117	9.551677100000001
2026-03-27 07:46:52.317	-2.157463	0.10787315000000117	9.54187045
2026-03-27 07:46:52.577	-2.157463	0.10787315000000117	9.54187045
2026-03-27 07:46:52.819	-2.16726965	0.11767980000000117	9.54187045
2026-03-27 07:46:53.074	-2.16726965	0.11767980000000117	9.54187045
2026-03-27 07:46:53.317	-2.16726965	0.12748645000000117	9.54187045
2026-03-27 07:46:53.573	-2.16726965	0.12748645000000117	9.54187045
2026-03-27 07:46:53.818	-2.1770763	0.13729310000000117	9.551677100000001
2026-03-27 07:46:54.073	-2.1770763	0.13729310000000117	9.551677100000001
2026-03-27 07:46:54.318	-2.1770763	0.13729310000000117	9.551677100000001
2026-03-27 07:46:54.573	-2.1770763	0.13729310000000117	9.551677100000001
2026-03-27 07:46:54.822	-2.18688295	0.12748645000000117	9.551677100000001
2026-03-27 07:46:55.074	-2.18688295	0.12748645000000117	9.551677100000001
2026-03-27 07:46:55.318	-2.16726965	0.12748645000000117	9.56148375
2026-03-27 07:46:55.574	-2.16726965	0.12748645000000117	9.56148375
2026-03-27 07:46:55.818	-2.18688295	0.11767980000000117	9.5712904
2026-03-27 07:46:56.073	-2.18688295	0.11767980000000117	9.5712904
2026-03-27 07:46:56.320	-2.1966896	0.11767980000000117	9.56148375
2026-03-27 07:46:56.574	-2.1966896	0.11767980000000117	9.56148375
2026-03-27 07:46:56.817	-2.1770763	0.11767980000000117	9.551677100000001
2026-03-27 07:46:57.076	-2.1770763	0.11767980000000117	9.551677100000001
2026-03-27 07:46:57.320	-2.16726965	0.12748645000000117	9.5712904
2026-03-27 07:46:57.574	-2.16726965	0.12748645000000117	9.5712904
2026-03-27 07:46:57.818	-2.18688295	0.12748645000000117	9.56148375
2026-03-27 07:46:58.073	-2.18688295	0.12748645000000117	9.56148375
2026-03-27 07:46:58.318	-2.1770763	0.10787315000000117	9.551677100000001
2026-03-27 07:46:58.574	-2.1770763	0.10787315000000117	9.551677100000001
2026-03-27 07:46:58.818	-2.1770763	0.11767980000000117	9.5320638
2026-03-27 07:46:59.073	-2.1770763	0.11767980000000117	9.5320638
2026-03-27 07:46:59.325	-2.16726965	0.13729310000000117	9.5712904
2026-03-27 07:46:59.575	-2.16726965	0.13729310000000117	9.5712904
2026-03-27 07:46:59.817	-2.18688295	0.11767980000000117	9.551677100000001
2026-03-27 07:47:00.073	-2.18688295	0.11767980000000117	9.551677100000001
2026-03-27 07:47:00.317	-2.1770763	0.11767980000000117	9.56148375
2026-03-27 07:47:00.573	-2.1770763	0.11767980000000117	9.56148375
2026-03-27 07:47:00.818	-2.1770763	0.11767980000000117	9.56148375
2026-03-27 07:47:01.073	-2.1770763	0.11767980000000117	9.56148375
2026-03-27 07:47:01.317	-2.1770763	0.11767980000000117	9.551677100000001
2026-03-27 07:47:01.577	-2.1770763	0.11767980000000117	9.551677100000001
2026-03-27 07:47:01.822	-2.1770763	0.12748645000000117	9.551677100000001
2026-03-27 07:47:02.074	-2.1770763	0.12748645000000117	9.551677100000001
2026-03-27 07:47:02.317	-2.1770763	0.12748645000000117	9.56148375
2026-03-27 07:47:02.574	-2.1770763	0.12748645000000117	9.56148375
2026-03-27 07:47:02.819	-2.1770763	0.11767980000000117	9.56148375
2026-03-27 07:47:03.074	-2.1770763	0.11767980000000117	9.56148375
2026-03-27 07:47:03.317	-2.1770763	0.12748645000000117	9.56148375
2026-03-27 07:47:03.573	-2.1770763	0.12748645000000117	9.56148375
2026-03-27 07:47:03.824	-2.1770763	0.12748645000000117	9.56148375
2026-03-27 07:47:04.074	-2.1770763	0.12748645000000117	9.56148375
2026-03-27 07:47:04.318	-2.1770763	0.12748645000000117	9.56148375
2026-03-27 07:47:04.573	-2.1770763	0.12748645000000117	9.56148375
2026-03-27 07:47:04.818	-2.1770763	0.12748645000000117	9.56148375
2026-03-27 07:47:05.074	-2.1770763	0.12748645000000117	9.56148375
2026-03-27 07:47:05.320	-2.1770763	0.12748645000000117	9.56148375
2026-03-27 07:47:05.574	-2.1770763	0.12748645000000117	9.56148375
2026-03-27 07:47:05.818	-2.1770763	0.12748645000000117	9.56148375
2026-03-27 07:47:06.077	-2.1770763	0.12748645000000117	9.56148375
2026-03-27 07:47:06.323	-2.1770763	0.12748645000000117	9.56148375
2026-03-27 07:47:06.574	-2.1770763	0.12748645000000117	9.56148375
2026-03-27 07:47:06.816	-2.1770763	0.12748645000000117	9.56148375
2026-03-27 07:47:07.074	-2.1770763	0.12748645000000117	9.56148375
2026-03-27 07:47:07.316	-2.1770763	0.12748645000000117	9.56148375
2026-03-27 07:47:07.572	-2.1770763	0.12748645000000117	9.56148375
2026-03-27 07:47:07.816	-2.1770763	0.12748645000000117	9.56148375
2026-03-27 07:47:08.074	-2.1770763	0.12748645000000117	9.56148375
2026-03-27 07:47:08.323	-2.1770763	0.12748645000000117	9.56148375
2026-03-27 07:47:08.573	-2.1770763	0.12748645000000117	9.56148375
2026-03-27 07:47:08.831	-2.1770763	0.12748645000000117	9.56148375
2026-03-27 07:47:09.073	-2.1770763	0.12748645000000117	9.56148375
2026-03-27 07:47:09.317	-2.18688295	0.12748645000000117	9.56148375
2026-03-27 07:47:09.573	-2.18688295	0.12748645000000117	9.56148375
2026-03-27 07:47:09.818	-2.1770763	0.12748645000000117	9.56148375
2026-03-27 07:47:10.074	-2.1770763	0.12748645000000117	9.56148375
2026-03-27 07:47:10.318	-2.1770763	0.12748645000000117	9.56148375
2026-03-27 07:47:10.576	-2.1770763	0.12748645000000117	9.56148375
2026-03-27 07:47:10.824	-2.1770763	0.12748645000000117	9.56148375
2026-03-27 07:47:11.074	-2.1770763	0.12748645000000117	9.56148375
2026-03-27 07:47:11.319	-2.1770763	0.12748645000000117	9.56148375
2026-03-27 07:47:11.573	-2.1770763	0.12748645000000117	9.56148375
2026-03-27 07:47:11.817	-2.1770763	0.12748645000000117	9.56148375
2026-03-27 07:47:12.074	-2.1770763	0.12748645000000117	9.56148375
2026-03-27 07:47:12.318	-2.1770763	0.12748645000000117	9.56148375
2026-03-27 07:47:12.573	-2.1770763	0.12748645000000117	9.56148375
2026-03-27 07:47:12.822	-2.1770763	0.12748645000000117	9.56148375
2026-03-27 07:47:13.073	-2.1770763	0.12748645000000117	9.56148375
2026-03-27 07:47:13.317	-2.1770763	0.12748645000000117	9.56148375
2026-03-27 07:47:13.573	-2.1770763	0.12748645000000117	9.56148375
2026-03-27 07:47:13.816	-2.1770763	0.12748645000000117	9.56148375
2026-03-27 07:47:14.073	-2.1770763	0.12748645000000117	9.56148375
2026-03-27 07:47:14.317	-2.1770763	0.12748645000000117	9.551677100000001
2026-03-27 07:47:14.573	-2.1770763	0.12748645000000117	9.551677100000001
2026-03-27 07:47:14.818	-2.1770763	0.12748645000000117	9.56148375
2026-03-27 07:47:15.076	-2.1770763	0.12748645000000117	9.56148375
2026-03-27 07:47:15.319	-2.18688295	0.12748645000000117	9.56148375
2026-03-27 07:47:15.573	-2.18688295	0.12748645000000117	9.56148375
2026-03-27 07:47:15.816	-2.1770763	0.12748645000000117	9.56148375
2026-03-27 07:47:16.073	-2.1770763	0.12748645000000117	9.56148375
2026-03-27 07:47:16.317	-2.1770763	0.12748645000000117	9.56148375
2026-03-27 07:47:16.573	-2.1770763	0.12748645000000117	9.56148375
2026-03-27 07:47:16.817	-2.1770763	0.12748645000000117	9.551677100000001
2026-03-27 07:47:17.073	-2.1770763	0.12748645000000117	9.551677100000001
2026-03-27 07:47:17.323	-2.1770763	0.12748645000000117	9.56148375
2026-03-27 07:47:17.573	-2.1770763	0.12748645000000117	9.56148375
2026-03-27 07:47:17.816	-2.1770763	0.12748645000000117	9.56148375
2026-03-27 07:47:18.073	-2.1770763	0.12748645000000117	9.56148375
2026-03-27 07:47:18.318	-2.1770763	0.12748645000000117	9.56148375
2026-03-27 07:47:18.573	-2.1770763	0.12748645000000117	9.56148375
2026-03-27 07:47:18.827	-2.1770763	0.11767980000000117	9.56148375
2026-03-27 07:47:19.073	-2.1770763	0.11767980000000117	9.56148375
2026-03-27 07:47:19.318	-2.18688295	0.12748645000000117	9.56148375
2026-03-27 07:47:19.576	-2.18688295	0.12748645000000117	9.56148375
2026-03-27 07:47:19.822	-2.1770763	0.12748645000000117	9.56148375
2026-03-27 07:47:20.073	-2.1770763	0.12748645000000117	9.56148375
2026-03-27 07:47:20.316	-2.18688295	0.11767980000000117	9.56148375
2026-03-27 07:47:20.573	-2.18688295	0.11767980000000117	9.56148375
2026-03-27 07:47:20.818	-2.1770763	0.12748645000000117	9.56148375
2026-03-27 07:47:21.073	-2.1770763	0.12748645000000117	9.56148375
2026-03-27 07:47:21.317	-2.1770763	0.12748645000000117	9.56148375
2026-03-27 07:47:21.573	-2.1770763	0.12748645000000117	9.56148375
2026-03-27 07:47:21.818	-2.1770763	0.12748645000000117	9.56148375
2026-03-27 07:47:22.074	-2.1770763	0.12748645000000117	9.56148375
2026-03-27 07:47:22.316	-2.1770763	0.12748645000000117	9.56148375
2026-03-27 07:47:22.573	-2.1770763	0.12748645000000117	9.56148375
2026-03-27 07:47:22.815	-2.1770763	0.12748645000000117	9.56148375
2026-03-27 07:47:23.073	-2.1770763	0.12748645000000117	9.56148375
2026-03-27 07:47:23.316	-2.1770763	0.12748645000000117	9.56148375
2026-03-27 07:47:23.573	-2.1770763	0.12748645000000117	9.56148375
2026-03-27 07:47:23.826	-2.18688295	0.12748645000000117	9.551677100000001
2026-03-27 07:47:24.076	-2.18688295	0.12748645000000117	9.551677100000001
2026-03-27 07:47:24.319	-2.1770763	0.12748645000000117	9.56148375
2026-03-27 07:47:24.572	-2.1770763	0.12748645000000117	9.56148375
2026-03-27 07:47:24.817	-2.1770763	0.12748645000000117	9.56148375
2026-03-27 07:47:25.073	-2.1770763	0.12748645000000117	9.56148375
2026-03-27 07:47:25.318	-2.1770763	0.12748645000000117	9.56148375
2026-03-27 07:47:25.572	-2.1770763	0.12748645000000117	9.56148375
2026-03-27 07:47:25.816	-2.1770763	0.11767980000000117	9.551677100000001
2026-03-27 07:47:26.072	-2.1770763	0.11767980000000117	9.551677100000001
2026-03-27 07:47:26.325	-2.1770763	0.12748645000000117	9.56148375
2026-03-27 07:47:26.572	-2.1770763	0.12748645000000117	9.56148375
2026-03-27 07:47:26.818	-2.1770763	0.12748645000000117	9.551677100000001
2026-03-27 07:47:27.073	-2.1770763	0.12748645000000117	9.551677100000001
2026-03-27 07:47:27.318	-2.1770763	0.11767980000000117	9.551677100000001
2026-03-27 07:47:27.572	-2.1770763	0.11767980000000117	9.551677100000001
2026-03-27 07:47:27.816	-2.1770763	0.12748645000000117	9.56148375
2026-03-27 07:47:28.072	-2.1770763	0.12748645000000117	9.56148375
2026-03-27 07:47:28.316	-2.18688295	0.12748645000000117	9.5712904
2026-03-27 07:47:28.575	-2.18688295	0.12748645000000117	9.5712904
2026-03-27 07:47:28.818	-2.1770763	0.12748645000000117	9.56148375
2026-03-27 07:47:29.072	-2.1770763	0.12748645000000117	9.56148375
2026-03-27 07:47:29.315	-2.1770763	0.12748645000000117	9.56148375
2026-03-27 07:47:29.572	-2.1770763	0.12748645000000117	9.56148375
2026-03-27 07:47:29.818	-2.18688295	0.12748645000000117	9.56148375
2026-03-27 07:47:30.072	-2.18688295	0.12748645000000117	9.56148375
2026-03-27 07:47:30.317	-2.18688295	0.13729310000000117	9.56148375
2026-03-27 07:47:30.572	-2.18688295	0.13729310000000117	9.56148375
2026-03-27 07:47:30.819	-2.18688295	0.11767980000000117	9.551677100000001
2026-03-27 07:47:31.072	-2.18688295	0.11767980000000117	9.551677100000001
2026-03-27 07:47:31.317	-2.16726965	0.11767980000000117	9.56148375
2026-03-27 07:47:31.572	-2.16726965	0.11767980000000117	9.56148375
2026-03-27 07:47:31.817	-2.1770763	0.11767980000000117	9.56148375
2026-03-27 07:47:32.072	-2.1770763	0.11767980000000117	9.56148375
2026-03-27 07:47:32.316	-2.1770763	0.12748645000000117	9.56148375
2026-03-27 07:47:32.575	-2.1770763	0.12748645000000117	9.56148375
2026-03-27 07:47:32.817	-2.1770763	0.13729310000000117	9.56148375
2026-03-27 07:47:33.075	-2.1770763	0.13729310000000117	9.56148375
2026-03-27 07:47:33.319	-2.1770763	0.14709975000000117	9.56148375
2026-03-27 07:47:33.572	-2.1770763	0.14709975000000117	9.56148375
2026-03-27 07:47:33.827	-2.1770763	0.11767980000000117	9.56148375
2026-03-27 07:47:34.072	-2.1770763	0.11767980000000117	9.56148375
2026-03-27 07:47:34.317	-2.1770763	0.12748645000000117	9.56148375
2026-03-27 07:47:34.572	-2.1770763	0.12748645000000117	9.56148375
2026-03-27 07:47:34.816	-2.1770763	0.12748645000000117	9.56148375
2026-03-27 07:47:35.072	-2.1770763	0.12748645000000117	9.56148375
2026-03-27 07:47:35.323	-2.1770763	0.11767980000000117	9.56148375
2026-03-27 07:47:35.572	-2.1770763	0.11767980000000117	9.56148375
2026-03-27 07:47:35.816	-2.1770763	0.12748645000000117	9.56148375
2026-03-27 07:47:36.072	-2.1770763	0.12748645000000117	9.56148375
2026-03-27 07:47:36.319	-2.1770763	0.12748645000000117	9.551677100000001
2026-03-27 07:47:36.573	-2.1770763	0.12748645000000117	9.551677100000001
2026-03-27 07:47:36.817	-2.1770763	0.12748645000000117	9.551677100000001
2026-03-27 07:47:37.072	-2.1770763	0.12748645000000117	9.551677100000001
2026-03-27 07:47:37.322	-2.1770763	0.12748645000000117	9.551677100000001
2026-03-27 07:47:37.576	-2.1770763	0.12748645000000117	9.551677100000001
2026-03-27 07:47:37.818	-2.1770763	0.12748645000000117	9.551677100000001
2026-03-27 07:47:38.072	-2.1770763	0.12748645000000117	9.551677100000001
2026-03-27 07:47:38.315	-2.1770763	0.11767980000000117	9.551677100000001
2026-03-27 07:47:38.572	-2.1770763	0.11767980000000117	9.551677100000001
2026-03-27 07:47:38.829	-2.1770763	0.12748645000000117	9.56148375
2026-03-27 07:47:39.072	-2.1770763	0.12748645000000117	9.56148375
2026-03-27 07:47:39.317	-2.18688295	0.12748645000000117	9.551677100000001
2026-03-27 07:47:39.572	-2.18688295	0.12748645000000117	9.551677100000001
2026-03-27 07:47:39.821	-2.1770763	0.12748645000000117	9.56148375
2026-03-27 07:47:40.072	-2.1770763	0.12748645000000117	9.56148375
2026-03-27 07:47:40.317	-2.1770763	0.11767980000000117	9.551677100000001
2026-03-27 07:47:40.572	-2.1770763	0.11767980000000117	9.551677100000001
2026-03-27 07:47:40.816	-2.1770763	0.11767980000000117	9.56148375
2026-03-27 07:47:41.072	-2.1770763	0.11767980000000117	9.56148375
2026-03-27 07:47:41.317	-2.1966896	0.13729310000000117	9.56148375
2026-03-27 07:47:41.572	-2.1966896	0.13729310000000117	9.56148375
2026-03-27 07:47:41.816	-2.18688295	0.12748645000000117	9.551677100000001
2026-03-27 07:47:42.075	-2.18688295	0.12748645000000117	9.551677100000001
2026-03-27 07:47:42.318	-2.18688295	0.08825985000000117	9.56148375
2026-03-27 07:47:42.572	-2.18688295	0.08825985000000117	9.56148375
2026-03-27 07:47:42.816	-2.18688295	0.11767980000000117	9.551677100000001
2026-03-27 07:47:43.072	-2.18688295	0.11767980000000117	9.551677100000001
2026-03-27 07:47:43.317	-2.1770763	0.08825985000000117	9.551677100000001
2026-03-27 07:47:43.572	-2.1770763	0.08825985000000117	9.551677100000001
2026-03-27 07:47:43.816	-2.157463	0.13729310000000117	9.551677100000001
2026-03-27 07:47:44.072	-2.157463	0.13729310000000117	9.551677100000001
2026-03-27 07:47:44.322	-2.1770763	0.1667130500000012	9.551677100000001
2026-03-27 07:47:44.572	-2.1770763	0.1667130500000012	9.551677100000001
2026-03-27 07:47:44.819	-2.1770763	0.10787315000000117	9.551677100000001
2026-03-27 07:47:45.072	-2.1770763	0.10787315000000117	9.551677100000001
2026-03-27 07:47:45.316	-2.18688295	0.1765197000000012	9.56148375
2026-03-27 07:47:45.573	-2.18688295	0.1765197000000012	9.56148375
2026-03-27 07:47:45.817	-2.16726965	0.1569064000000012	9.56148375
2026-03-27 07:47:46.072	-2.16726965	0.1569064000000012	9.56148375
2026-03-27 07:47:46.316	-2.157463	0.13729310000000117	9.56148375
2026-03-27 07:47:46.575	-2.157463	0.13729310000000117	9.56148375
2026-03-27 07:47:46.818	-2.16726965	0.14709975000000117	9.56148375
2026-03-27 07:47:47.072	-2.16726965	0.14709975000000117	9.56148375
2026-03-27 07:47:47.315	-2.1966896	0.08825985000000117	9.551677100000001
2026-03-27 07:47:47.574	-2.1966896	0.08825985000000117	9.551677100000001
2026-03-27 07:47:47.815	-2.1770763	0.11767980000000117	9.56148375
2026-03-27 07:47:48.072	-2.1770763	0.11767980000000117	9.56148375
2026-03-27 07:47:48.322	-2.1770763	0.08825985000000117	9.551677100000001
2026-03-27 07:47:48.572	-2.1770763	0.08825985000000117	9.551677100000001
2026-03-27 07:47:48.832	-2.32417605	0.39226600000000117	9.5712904
2026-03-27 07:47:49.072	-2.32417605	0.39226600000000117	9.5712904
2026-03-27 07:47:49.317	-2.16726965	0.10787315000000117	9.551677100000001
2026-03-27 07:47:49.571	-2.16726965	0.10787315000000117	9.551677100000001
2026-03-27 07:47:49.815	-2.18688295	0.12748645000000117	9.551677100000001
2026-03-27 07:47:50.072	-2.18688295	0.12748645000000117	9.551677100000001
2026-03-27 07:47:50.315	-2.1770763	0.11767980000000117	9.551677100000001
2026-03-27 07:47:50.572	-2.1770763	0.11767980000000117	9.551677100000001
2026-03-27 07:47:50.817	-2.16726965	0.06864655000000117	9.551677100000001
2026-03-27 07:47:51.075	-2.16726965	0.06864655000000117	9.551677100000001
2026-03-27 07:47:51.318	-2.12804305	0.10787315000000117	9.56148375
2026-03-27 07:47:51.572	-2.12804305	0.10787315000000117	9.56148375
2026-03-27 07:47:51.814	-2.16726965	0.08825985000000117	9.551677100000001
2026-03-27 07:47:52.072	-2.16726965	0.08825985000000117	9.551677100000001
2026-03-27 07:47:52.317	-2.16726965	0.08825985000000117	9.551677100000001
2026-03-27 07:47:52.572	-2.16726965	0.08825985000000117	9.551677100000001
2026-03-27 07:47:52.817	-2.18688295	0.09806650000000117	9.551677100000001
2026-03-27 07:47:53.072	-2.18688295	0.09806650000000117	9.551677100000001
2026-03-27 07:47:53.322	-2.1770763	0.14709975000000117	9.56148375
2026-03-27 07:47:53.572	-2.1770763	0.14709975000000117	9.56148375
2026-03-27 07:47:53.816	-2.18688295	0.14709975000000117	9.56148375
2026-03-27 07:47:54.072	-2.18688295	0.14709975000000117	9.56148375
2026-03-27 07:47:54.315	-2.18688295	0.2157463000000012	9.5712904
2026-03-27 07:47:54.572	-2.18688295	0.2157463000000012	9.5712904
2026-03-27 07:47:54.815	-2.1378497	0.06864655000000117	9.551677100000001
2026-03-27 07:47:55.071	-2.1378497	0.06864655000000117	9.551677100000001
2026-03-27 07:47:55.316	-2.1770763	0.14709975000000117	9.56148375
2026-03-27 07:47:55.574	-2.1770763	0.14709975000000117	9.56148375
2026-03-27 07:47:55.819	-2.18688295	0.08825985000000117	9.56148375
2026-03-27 07:47:56.072	-2.18688295	0.08825985000000117	9.56148375
2026-03-27 07:47:56.317	-2.22610955	0.039226600000001166	9.56148375
2026-03-27 07:47:56.572	-2.22610955	0.039226600000001166	9.56148375
2026-03-27 07:47:56.815	-2.14765635	0.12748645000000117	9.56148375
2026-03-27 07:47:57.072	-2.14765635	0.12748645000000117	9.56148375
2026-03-27 07:47:57.318	-2.18688295	0.1765197000000012	9.56148375
2026-03-27 07:47:57.571	-2.18688295	0.1765197000000012	9.56148375
2026-03-27 07:47:57.816	-2.42224255	0.5982056500000011	9.610517
2026-03-27 07:47:58.072	-2.42224255	0.5982056500000011	9.610517
2026-03-27 07:47:58.316	-2.18688295	0.058839900000001166	9.551677100000001
2026-03-27 07:47:58.572	-2.18688295	0.058839900000001166	9.551677100000001
2026-03-27 07:47:58.827	-2.18688295	0.14709975000000117	9.56148375
2026-03-27 07:47:59.072	-2.18688295	0.14709975000000117	9.56148375
2026-03-27 07:47:59.316	-2.1770763	0.12748645000000117	9.56148375
2026-03-27 07:47:59.571	-2.1770763	0.12748645000000117	9.56148375
2026-03-27 07:47:59.819	-2.18688295	0.10787315000000117	9.551677100000001
2026-03-27 07:48:00.075	-2.18688295	0.10787315000000117	9.551677100000001
2026-03-27 07:48:00.318	-2.2751428000000002	0.1765197000000012	9.56148375
2026-03-27 07:48:00.572	-2.2751428000000002	0.1765197000000012	9.56148375
2026-03-27 07:48:00.815	-2.1966896	0.09806650000000117	9.551677100000001
2026-03-27 07:48:01.072	-2.1966896	0.09806650000000117	9.551677100000001
2026-03-27 07:48:01.318	-2.1966896	0.1569064000000012	9.5712904
2026-03-27 07:48:01.572	-2.1966896	0.1569064000000012	9.5712904
2026-03-27 07:48:01.816	-2.22610955	0.009806650000001168	9.5320638
2026-03-27 07:48:02.072	-2.22610955	0.009806650000001168	9.5320638
2026-03-27 07:48:02.324	-2.2555295	0.3040061500000012	9.9243298
2026-03-27 07:48:02.572	-2.2555295	0.3040061500000012	9.9243298
2026-03-27 07:48:02.818	-2.1966896	0.2745862000000012	9.89490985
2026-03-27 07:48:03.072	-2.1966896	0.2745862000000012	9.89490985
2026-03-27 07:48:03.316	-1.8240369	-0.13729309999999884	9.4928372
2026-03-27 07:48:03.573	-1.8240369	-0.13729309999999884	9.4928372
2026-03-27 07:48:03.825	-1.9809433	0.1863263500000012	9.610517
2026-03-27 07:48:04.072	-1.9809433	0.1863263500000012	9.610517
2026-03-27 07:48:04.316	-2.10842975	0.12748645000000117	9.58109705
2026-03-27 07:48:04.575	-2.10842975	0.12748645000000117	9.58109705
2026-03-27 07:48:04.819	-2.1770763	0.2059396500000012	9.65955025
2026-03-27 07:48:05.072	-2.1770763	0.2059396500000012	9.65955025
2026-03-27 07:48:05.315	-2.85373515	0.47071920000000117	9.9439431
2026-03-27 07:48:05.572	-2.85373515	0.47071920000000117	9.9439431
2026-03-27 07:48:05.817	-1.7063571	-0.14709974999999886	9.414384
2026-03-27 07:48:06.072	-1.7063571	-0.14709974999999886	9.414384
2026-03-27 07:48:06.316	-1.83384355	-0.23535959999999886	9.48303055
2026-03-27 07:48:06.572	-1.83384355	-0.23535959999999886	9.48303055
2026-03-27 07:48:06.819	-1.9417167	-0.26477954999999886	9.4928372
2026-03-27 07:48:07.073	-1.9417167	-0.26477954999999886	9.4928372
2026-03-27 07:48:07.315	-1.9809433	-0.049033249999998835	9.551677100000001
2026-03-27 07:48:07.572	-1.9809433	-0.049033249999998835	9.551677100000001
2026-03-27 07:48:07.820	-2.1182364	0.1569064000000012	9.7085835
2026-03-27 07:48:08.072	-2.1182364	0.1569064000000012	9.7085835
2026-03-27 07:48:08.316	-1.8436502	-0.029419949999998828	9.5712904
2026-03-27 07:48:08.571	-1.8436502	-0.029419949999998828	9.5712904
2026-03-27 07:48:08.827	-1.95152335	0.06864655000000118	9.6301303
2026-03-27 07:48:09.075	-1.95152335	0.06864655000000118	9.6301303
2026-03-27 07:48:09.318	-1.9417167	-0.06864654999999883	9.551677100000001
2026-03-27 07:48:09.571	-1.9417167	-0.06864654999999883	9.551677100000001
2026-03-27 07:48:09.815	-2.0005566	0.03922660000000117	9.60071035
2026-03-27 07:48:10.072	-2.0005566	0.03922660000000117	9.60071035
2026-03-27 07:48:10.314	-2.01036325	0.03922660000000117	9.62032365
2026-03-27 07:48:10.572	-2.01036325	0.03922660000000117	9.62032365
2026-03-27 07:48:10.817	-1.99074995	0.009806650000001174	9.5909037
2026-03-27 07:48:11.072	-1.99074995	0.009806650000001174	9.5909037
2026-03-27 07:48:11.325	-1.96133	-0.07845319999999882	9.5712904
2026-03-27 07:48:11.572	-1.96133	-0.07845319999999882	9.5712904
2026-03-27 07:48:11.816	-2.01036325	0.03922660000000117	9.5909037
2026-03-27 07:48:12.071	-2.01036325	0.03922660000000117	9.5909037
2026-03-27 07:48:12.316	-2.01036325	0.03922660000000117	9.60071035
2026-03-27 07:48:12.572	-2.01036325	0.03922660000000117	9.60071035
2026-03-27 07:48:12.816	-2.0593965	0.09806650000000118	9.6301303
2026-03-27 07:48:13.071	-2.0593965	0.09806650000000118	9.6301303
2026-03-27 07:48:13.315	-2.01036325	0.03922660000000117	9.5909037
2026-03-27 07:48:13.574	-2.01036325	0.03922660000000117	9.5909037
2026-03-27 07:48:13.817	-2.02997655	0.03922660000000117	9.5909037
2026-03-27 07:48:14.071	-2.02997655	0.03922660000000117	9.5909037
2026-03-27 07:48:14.315	-1.9809433	-0.009806649999998826	9.58109705
2026-03-27 07:48:14.572	-1.9809433	-0.009806649999998826	9.58109705
2026-03-27 07:48:14.818	-2.02997655	0.07845320000000117	9.5909037
2026-03-27 07:48:15.071	-2.02997655	0.07845320000000117	9.5909037
2026-03-27 07:48:15.315	-2.04958985	0.06864655000000118	9.5909037
2026-03-27 07:48:15.571	-2.04958985	0.06864655000000118	9.5909037
2026-03-27 07:48:15.820	-2.0201699	0.04903325000000117	9.60071035
2026-03-27 07:48:16.071	-2.0201699	0.04903325000000117	9.60071035
2026-03-27 07:48:16.316	-2.0201699	0.04903325000000117	9.5909037
2026-03-27 07:48:16.572	-2.0201699	0.04903325000000117	9.5909037
2026-03-27 07:48:16.816	-1.99074995	0.019613300000001173	9.58109705
2026-03-27 07:48:17.076	-1.99074995	0.019613300000001173	9.58109705
2026-03-27 07:48:17.316	-2.04958985	1.1709440469536932e-15	9.56148375
2026-03-27 07:48:17.571	-2.04958985	1.1709440469536932e-15	9.56148375
2026-03-27 07:48:17.818	-2.0397832	0.04903325000000117	9.58109705
2026-03-27 07:48:18.074	-2.0397832	0.04903325000000117	9.58109705
2026-03-27 07:48:18.318	-1.97113665	1.173345983460265e-15	9.58109705
2026-03-27 07:48:18.571	-1.97113665	1.173345983460265e-15	9.58109705
2026-03-27 07:48:18.814	-1.99074995	-0.029419949999998828	9.56148375
2026-03-27 07:48:19.072	-1.99074995	-0.029419949999998828	9.56148375
2026-03-27 07:48:19.316	-2.0201699	0.04903325000000117	9.5909037
2026-03-27 07:48:19.571	-2.0201699	0.04903325000000117	9.5909037
2026-03-27 07:48:19.815	-2.02997655	0.05883990000000117	9.5909037
2026-03-27 07:48:20.071	-2.02997655	0.05883990000000117	9.5909037
2026-03-27 07:48:20.321	-2.0201699	0.03922660000000117	9.5909037
2026-03-27 07:48:20.572	-2.0201699	0.03922660000000117	9.5909037
2026-03-27 07:48:20.816	-2.01036325	1.173345983460265e-15	9.58109705
2026-03-27 07:48:21.071	-2.01036325	1.173345983460265e-15	9.58109705
2026-03-27 07:48:21.315	-2.0790098	0.11767980000000117	9.60071035
2026-03-27 07:48:21.571	-2.0790098	0.11767980000000117	9.60071035
2026-03-27 07:48:21.814	-2.0397832	0.07845320000000117	9.60071035
2026-03-27 07:48:22.071	-2.0397832	0.07845320000000117	9.60071035
2026-03-27 07:48:22.317	-2.0201699	0.029419950000001173	9.58109705
2026-03-27 07:48:22.575	-2.0201699	0.029419950000001173	9.58109705
2026-03-27 07:48:22.817	-2.01036325	0.04903325000000117	9.58109705
2026-03-27 07:48:23.072	-2.01036325	0.04903325000000117	9.58109705
2026-03-27 07:48:23.315	-2.0201699	0.05883990000000117	9.58109705
2026-03-27 07:48:23.572	-2.0201699	0.05883990000000117	9.58109705
2026-03-27 07:48:23.818	-1.99074995	0.05883990000000117	9.5712904
2026-03-27 07:48:24.071	-1.99074995	0.05883990000000117	9.5712904
2026-03-27 07:48:24.316	-1.9809433	0.1667130500000012	9.65955025
2026-03-27 07:48:24.572	-1.9809433	0.1667130500000012	9.65955025
2026-03-27 07:48:24.819	-2.16726965	-0.009806649999998812	9.69877685
2026-03-27 07:48:25.072	-2.16726965	-0.009806649999998812	9.69877685
2026-03-27 07:48:25.316	-1.85345685	-0.00980664999999883	9.56148375
2026-03-27 07:48:25.573	-1.85345685	-0.00980664999999883	9.56148375
2026-03-27 07:48:25.817	-1.87307015	-0.4216859499999988	9.50264385
2026-03-27 07:48:26.072	-1.87307015	-0.4216859499999988	9.50264385
2026-03-27 07:48:26.316	-1.95152335	-0.06864654999999882	9.67916355
2026-03-27 07:48:26.572	-1.95152335	-0.06864654999999882	9.67916355
2026-03-27 07:48:26.816	-1.83384355	-0.1372930999999988	9.610517
2026-03-27 07:48:27.075	-1.83384355	-0.1372930999999988	9.610517
2026-03-27 07:48:27.321	-2.59876225	-0.48052584999999887	9.11037785
2026-03-27 07:48:27.571	-2.59876225	-0.48052584999999887	9.11037785
2026-03-27 07:48:27.818	-1.9024901	-0.08825984999999882	9.6693569
2026-03-27 07:48:28.072	-1.9024901	-0.08825984999999882	9.6693569
2026-03-27 07:48:28.315	-1.9809433	1.1841546977398374e-15	9.6693569
2026-03-27 07:48:28.572	-1.9809433	1.1841546977398374e-15	9.6693569
2026-03-27 07:48:28.815	-1.9024901	-0.02941994999999882	9.639936950000001
2026-03-27 07:48:29.071	-1.9024901	-0.02941994999999882	9.639936950000001
2026-03-27 07:48:29.322	-1.89268345	-0.05883989999999883	9.62032365
2026-03-27 07:48:29.572	-1.89268345	-0.05883989999999883	9.62032365
2026-03-27 07:48:29.817	-1.8828768	-0.1667130499999988	9.58109705
2026-03-27 07:48:30.071	-1.8828768	-0.1667130499999988	9.58109705
2026-03-27 07:48:30.317	-1.9024901	1.1793508247266942e-15	9.6301303
2026-03-27 07:48:30.572	-1.9024901	1.1793508247266942e-15	9.6301303
2026-03-27 07:48:30.814	-1.87307015	-0.25497289999999884	9.54187045
2026-03-27 07:48:31.071	-1.87307015	-0.25497289999999884	9.54187045
2026-03-27 07:48:31.318	-1.87307015	-0.06864654999999882	9.610517
2026-03-27 07:48:31.575	-1.87307015	-0.06864654999999882	9.610517
2026-03-27 07:48:31.817	-1.8632635	-0.06864654999999882	9.610517
2026-03-27 07:48:32.071	-1.8632635	-0.06864654999999882	9.610517
2026-03-27 07:48:32.315	-1.89268345	-0.07845319999999882	9.67916355
2026-03-27 07:48:32.571	-1.89268345	-0.07845319999999882	9.67916355
2026-03-27 07:48:32.813	0.9610517000000001	-0.049033249999998765	10.11065615
2026-03-27 07:48:33.071	0.9610517000000001	-0.049033249999998765	10.11065615
2026-03-27 07:48:33.315	-1.95152335	1.1745469517135507e-15	9.5909037
2026-03-27 07:48:33.570	-1.95152335	1.1745469517135507e-15	9.5909037
2026-03-27 07:48:33.819	-1.91229675	0.01961330000000118	9.6301303
2026-03-27 07:48:34.071	-1.91229675	0.01961330000000118	9.6301303
2026-03-27 07:48:34.315	-1.9221034000000001	0.4216859500000012	9.6889702
2026-03-27 07:48:34.571	-1.9221034000000001	0.4216859500000012	9.6889702
2026-03-27 07:48:34.815	-2.32417605	0.39226600000000117	9.60071035
2026-03-27 07:48:35.071	-2.32417605	0.39226600000000117	9.60071035
2026-03-27 07:48:35.315	-2.0593965	0.09806650000000117	9.58109705
2026-03-27 07:48:35.571	-2.0593965	0.09806650000000117	9.58109705
2026-03-27 07:48:35.814	-1.9024901	1.1769488882201225e-15	9.610517
2026-03-27 07:48:36.073	-1.9024901	1.1769488882201225e-15	9.610517
2026-03-27 07:48:36.318	-1.95152335	1.1769488882201225e-15	9.610517
2026-03-27 07:48:36.571	-1.95152335	1.1769488882201225e-15	9.610517
2026-03-27 07:48:36.815	-1.8632635	-0.049033249999998814	9.6497436
2026-03-27 07:48:37.071	-1.8632635	-0.049033249999998814	9.6497436
2026-03-27 07:48:37.318	-1.14737805	0.31381280000000117	9.40457735
2026-03-27 07:48:37.571	-1.14737805	0.31381280000000117	9.40457735
2026-03-27 07:48:37.815	-2.14765635	0.2451662500000012	9.60071035
2026-03-27 07:48:38.071	-2.14765635	0.2451662500000012	9.60071035
2026-03-27 07:48:38.323	-0.4511059	0.5785923500000012	9.56148375
2026-03-27 07:48:38.571	-0.4511059	0.5785923500000012	9.56148375
2026-03-27 07:48:38.815	-1.32389775	-0.2451662499999988	9.69877685
2026-03-27 07:48:39.071	-1.32389775	-0.2451662499999988	9.69877685
2026-03-27 07:48:39.318	-1.9024901	1.1769488882201225e-15	9.610517
2026-03-27 07:48:39.571	-1.9024901	1.1769488882201225e-15	9.610517
2026-03-27 07:48:39.818	-1.91229675	-0.019613299999998828	9.5909037
2026-03-27 07:48:40.071	-1.91229675	-0.019613299999998828	9.5909037
2026-03-27 07:48:40.315	-1.93191005	1.1769488882201225e-15	9.610517
2026-03-27 07:48:40.575	-1.93191005	1.1769488882201225e-15	9.610517
2026-03-27 07:48:40.823	-1.9221034000000001	1.1769488882201225e-15	9.610517
2026-03-27 07:48:41.071	-1.9221034000000001	1.1769488882201225e-15	9.610517
2026-03-27 07:48:41.316	-1.9221034000000001	1.1769488882201225e-15	9.610517
2026-03-27 07:48:41.571	-1.9221034000000001	1.1769488882201225e-15	9.610517
2026-03-27 07:48:41.814	-1.9221034000000001	1.1769488882201225e-15	9.610517
2026-03-27 07:48:42.072	-1.9221034000000001	1.1769488882201225e-15	9.610517
2026-03-27 07:48:42.315	-1.9221034000000001	-0.009806649999998824	9.610517
2026-03-27 07:48:42.571	-1.9221034000000001	-0.009806649999998824	9.610517
2026-03-27 07:48:42.819	-1.93191005	1.1769488882201225e-15	9.610517
2026-03-27 07:48:43.071	-1.93191005	1.1769488882201225e-15	9.610517
2026-03-27 07:48:43.314	-1.9221034000000001	1.1769488882201225e-15	9.610517
2026-03-27 07:48:43.571	-1.9221034000000001	1.1769488882201225e-15	9.610517
2026-03-27 07:48:43.814	-1.93191005	1.1769488882201225e-15	9.610517
2026-03-27 07:48:44.071	-1.93191005	1.1769488882201225e-15	9.610517
2026-03-27 07:48:44.315	-1.93191005	0.02941995000000118	9.62032365
2026-03-27 07:48:44.571	-1.93191005	0.02941995000000118	9.62032365
2026-03-27 07:48:44.815	-1.93191005	1.1769488882201225e-15	9.610517
2026-03-27 07:48:45.074	-1.93191005	1.1769488882201225e-15	9.610517
2026-03-27 07:48:45.318	-1.9221034000000001	-0.009806649999998824	9.60071035
2026-03-27 07:48:45.571	-1.9221034000000001	-0.009806649999998824	9.60071035
2026-03-27 07:48:45.820	-1.91229675	1.1781498564734082e-15	9.62032365
2026-03-27 07:48:46.072	-1.91229675	1.1781498564734082e-15	9.62032365
2026-03-27 07:48:46.318	-1.9221034000000001	-0.009806649999998824	9.610517
2026-03-27 07:48:46.571	-1.9221034000000001	-0.009806649999998824	9.610517
2026-03-27 07:48:46.816	-1.91229675	1.1769488882201225e-15	9.610517
2026-03-27 07:48:47.071	-1.91229675	1.1769488882201225e-15	9.610517
2026-03-27 07:48:47.322	-1.9024901	-0.009806649999998824	9.610517
2026-03-27 07:48:47.571	-1.9024901	-0.009806649999998824	9.610517
2026-03-27 07:48:47.815	-1.9024901	-0.08825984999999882	9.62032365
2026-03-27 07:48:48.071	-1.9024901	-0.08825984999999882	9.62032365
2026-03-27 07:48:48.318	-2.4908891	-0.47071919999999867	11.0815145
2026-03-27 07:48:48.571	-2.4908891	-0.47071919999999867	11.0815145
2026-03-27 07:48:48.829	-0.1372931	0.323619450000001	7.93357985
2026-03-27 07:48:49.071	-0.1372931	0.323619450000001	7.93357985
2026-03-27 07:48:49.315	1.06892485	0.8629852000000012	10.79712165
2026-03-27 07:48:49.575	1.06892485	0.8629852000000012	10.79712165
2026-03-27 07:48:49.820	0.34323275	0.0392266000000011	8.99269805
2026-03-27 07:48:50.072	0.34323275	0.0392266000000011	8.99269805
2026-03-27 07:48:50.314	-1.34351105	0.22555295000000147	11.85623985
2026-03-27 07:48:50.571	-1.34351105	0.22555295000000147	11.85623985
2026-03-27 07:48:50.815	-1.36312435	-0.3530393999999987	10.395049
2026-03-27 07:48:51.071	-1.36312435	-0.3530393999999987	10.395049
2026-03-27 07:48:51.315	0.22555295	0.11767980000000111	9.07115125
2026-03-27 07:48:51.571	0.22555295	0.11767980000000111	9.07115125
2026-03-27 07:48:51.818	1.93191005	1.176798000000001	8.01203305
2026-03-27 07:48:52.072	1.93191005	1.176798000000001	8.01203305
2026-03-27 07:48:52.317	0.95124505	-0.6472388999999988	9.6301303
2026-03-27 07:48:52.571	0.95124505	-0.6472388999999988	9.6301303
2026-03-27 07:48:52.814	2.4516625	-0.421685949999999	8.62004535
2026-03-27 07:48:53.072	2.4516625	-0.421685949999999	8.62004535
2026-03-27 07:48:53.315	2.1966896	-0.441299249999999	8.4533323
2026-03-27 07:48:53.572	2.1966896	-0.441299249999999	8.4533323
2026-03-27 07:48:53.813	1.22583125	-0.34323274999999875	10.1204628
2026-03-27 07:48:54.074	1.22583125	-0.34323274999999875	10.1204628
2026-03-27 07:48:54.319	3.99130655	-0.5001391499999989	9.4732239
2026-03-27 07:48:54.570	3.99130655	-0.5001391499999989	9.4732239
2026-03-27 07:48:54.814	2.61837555	-0.166713049999999	8.18855275
2026-03-27 07:48:55.072	2.61837555	-0.166713049999999	8.18855275
2026-03-27 07:48:55.315	1.75539035	1.0689248500000013	10.07142955
2026-03-27 07:48:55.571	1.75539035	1.0689248500000013	10.07142955
2026-03-27 07:48:55.813	3.2754211	-0.36284604999999887	8.9828914
2026-03-27 07:48:56.070	3.2754211	-0.36284604999999887	8.9828914
2026-03-27 07:48:56.323	2.61837555	-0.2843928499999986	11.44436055
2026-03-27 07:48:56.571	2.61837555	-0.2843928499999986	11.44436055
2026-03-27 07:48:56.820	3.40290755	-0.1470997499999989	9.05153795
2026-03-27 07:48:57.071	3.40290755	-0.1470997499999989	9.05153795
2026-03-27 07:48:57.316	2.5693423	9.84793967694388e-16	8.041453
2026-03-27 07:48:57.571	2.5693423	9.84793967694388e-16	8.041453
2026-03-27 07:48:57.815	1.5886773	-0.284392849999999	8.11009955
2026-03-27 07:48:58.070	1.5886773	-0.284392849999999	8.11009955
2026-03-27 07:48:58.319	2.97141495	-0.9022117999999989	9.6497436
2026-03-27 07:48:58.575	2.97141495	-0.9022117999999989	9.6497436
2026-03-27 07:48:58.831	-0.00980665	-0.7060787999999986	11.18938765
2026-03-27 07:48:59.070	-0.00980665	-0.7060787999999986	11.18938765
2026-03-27 07:48:59.317	3.50097405	-1.1669913499999987	9.9047165
2026-03-27 07:48:59.570	3.50097405	-1.1669913499999987	9.9047165
2026-03-27 07:48:59.816	2.87334845	-0.06864654999999903	7.8845466
2026-03-27 07:49:00.070	2.87334845	-0.06864654999999903	7.8845466
2026-03-27 07:49:00.315	0.87279185	0.3040061500000011	8.91424485
2026-03-27 07:49:00.571	0.87279185	0.3040061500000011	8.91424485
2026-03-27 07:49:00.814	2.6281822	-0.7158854499999987	9.7478101
2026-03-27 07:49:01.070	2.6281822	-0.7158854499999987	9.7478101
2026-03-27 07:49:01.316	1.6867438	0.9218251000000015	12.513285400000001
2026-03-27 07:49:01.571	1.6867438	0.9218251000000015	12.513285400000001
2026-03-27 07:49:01.818	3.2361945	-1.5690639999999987	10.34601575
2026-03-27 07:49:02.071	3.2361945	-1.5690639999999987	10.34601575
2026-03-27 07:49:02.315	3.48136075	-0.9414383999999989	8.5906254
2026-03-27 07:49:02.571	3.48136075	-0.9414383999999989	8.5906254
2026-03-27 07:49:02.815	1.4709975	-0.617818949999999	8.1787461
2026-03-27 07:49:03.073	1.4709975	-0.617818949999999	8.1787461
2026-03-27 07:49:03.318	1.79461695	-0.01961329999999892	8.825985
2026-03-27 07:49:03.571	1.79461695	-0.01961329999999892	8.825985
2026-03-27 07:49:03.828	1.1375714000000001	1.2369973008844143e-15	10.1008495
2026-03-27 07:49:04.073	1.1375714000000001	1.2369973008844143e-15	10.1008495
2026-03-27 07:49:04.317	1.7455837	0.3530394000000011	9.1397978
2026-03-27 07:49:04.571	1.7455837	0.3530394000000011	9.1397978
2026-03-27 07:49:04.817	0.89240515	0.7649187000000012	9.60071035
2026-03-27 07:49:05.071	0.89240515	0.7649187000000012	9.60071035
2026-03-27 07:49:05.323	2.3928226	-1.1473780499999988	10.07142955
2026-03-27 07:49:05.571	2.3928226	-1.1473780499999988	10.07142955
2026-03-27 07:49:05.814	1.372931	-1.7161637499999989	8.433719
2026-03-27 07:49:06.071	1.372931	-1.7161637499999989	8.433719
2026-03-27 07:49:06.315	2.9812216	-0.14709974999999875	10.179302700000001
2026-03-27 07:49:06.571	2.9812216	-0.14709974999999875	10.179302700000001
2026-03-27 07:49:06.820	2.81450855	0.6864655000000012	9.0417313
2026-03-27 07:49:07.071	2.81450855	0.6864655000000012	9.0417313
2026-03-27 07:49:07.317	0.980665	0.06864655000000125	10.267562550000001
2026-03-27 07:49:07.575	0.980665	0.06864655000000125	10.267562550000001
2026-03-27 07:49:07.816	3.08909475	-0.29419949999999884	9.50264385
2026-03-27 07:49:08.071	3.08909475	-0.29419949999999884	9.50264385
2026-03-27 07:49:08.314	1.85345685	0.549172400000001	8.2179727
2026-03-27 07:49:08.571	1.85345685	0.549172400000001	8.2179727
2026-03-27 07:49:08.814	1.8632635	0.7845320000000012	9.83606995
2026-03-27 07:49:09.071	1.8632635	0.7845320000000012	9.83606995
2026-03-27 07:49:09.315	0.7453054	0.10787315000000107	8.6494653
2026-03-27 07:49:09.571	0.7453054	0.10787315000000107	8.6494653
2026-03-27 07:49:09.818	2.42224255	-0.8727918499999986	10.93441475
2026-03-27 07:49:10.071	2.42224255	-0.8727918499999986	10.93441475
2026-03-27 07:49:10.318	2.9223817	0.7453054000000011	9.0025047
2026-03-27 07:49:10.571	2.9223817	0.7453054000000011	9.0025047
2026-03-27 07:49:10.814	2.8635418	-0.509945799999999	8.26700595
2026-03-27 07:49:11.071	2.8635418	-0.509945799999999	8.26700595
2026-03-27 07:49:11.317	1.14737805	-0.5295590999999986	11.1207411
2026-03-27 07:49:11.571	1.14737805	-0.5295590999999986	11.1207411
2026-03-27 07:49:11.816	2.73605535	-0.04903324999999866	10.9442214
2026-03-27 07:49:12.074	2.73605535	-0.04903324999999866	10.9442214
2026-03-27 07:49:12.321	3.2852277500000002	-0.21574629999999878	9.85568325
2026-03-27 07:49:12.571	3.2852277500000002	-0.21574629999999878	9.85568325
2026-03-27 07:49:12.817	2.50069575	-0.019613299999998834	9.52225715
2026-03-27 07:49:13.071	2.50069575	-0.019613299999998834	9.52225715
2026-03-27 07:49:13.316	0.18632635	-0.22555294999999875	10.2185293
2026-03-27 07:49:13.572	0.18632635	-0.22555294999999875	10.2185293
2026-03-27 07:49:13.815	2.6085689	-0.44129924999999876	9.9831697
2026-03-27 07:49:14.071	2.6085689	-0.44129924999999876	9.9831697
2026-03-27 07:49:14.322	1.48080415	-0.12748644999999895	8.5710121
2026-03-27 07:49:14.571	1.48080415	-0.12748644999999895	8.5710121
2026-03-27 07:49:14.813	1.569064	0.2059396500000012	9.639936950000001
2026-03-27 07:49:15.071	1.569064	0.2059396500000012	9.639936950000001
2026-03-27 07:49:15.316	0.61781895	-1.0296982499999987	10.9442214
2026-03-27 07:49:15.571	0.61781895	-1.0296982499999987	10.9442214
2026-03-27 07:49:15.816	1.569064	0.44129925000000114	9.022118
2026-03-27 07:49:16.071	1.569064	0.44129925000000114	9.022118
2026-03-27 07:49:16.318	0.30400615	0.22555295000000125	10.14988275
2026-03-27 07:49:16.574	0.30400615	0.22555295000000125	10.14988275
2026-03-27 07:49:16.815	1.9809433	-0.11767979999999871	10.5715687
2026-03-27 07:49:17.072	1.9809433	-0.11767979999999871	10.5715687
2026-03-27 07:49:17.314	1.06892485	0.21574630000000114	9.2770909
2026-03-27 07:49:17.570	1.06892485	0.21574630000000114	9.2770909
2026-03-27 07:49:17.816	0.4511059	0.32361945000000125	10.2185293
2026-03-27 07:49:18.072	0.4511059	0.32361945000000125	10.2185293
2026-03-27 07:49:18.315	1.6671305	-0.7845319999999989	9.26728425
2026-03-27 07:49:18.570	1.6671305	-0.7845319999999989	9.26728425
2026-03-27 07:49:18.820	0.61781895	0.01961330000000116	9.4732239
2026-03-27 07:49:19.071	0.61781895	0.01961330000000116	9.4732239
2026-03-27 07:49:19.314	-0.5295591	-0.27458619999999884	9.2770909
2026-03-27 07:49:19.570	-0.5295591	-0.27458619999999884	9.2770909
2026-03-27 07:49:19.814	0.3138128	-0.9120184499999987	9.6889702
2026-03-27 07:49:20.071	0.3138128	-0.9120184499999987	9.6889702
2026-03-27 07:49:20.315	-0.7256921000000001	0.7747253500000013	10.79712165
2026-03-27 07:49:20.570	-0.7256921000000001	0.7747253500000013	10.79712165
2026-03-27 07:49:20.815	-1.176798	0.7943386500000013	9.9439431
2026-03-27 07:49:21.073	-1.176798	0.7943386500000013	9.9439431
2026-03-27 07:49:21.319	0.2157463	-0.4511058999999989	9.30651085
2026-03-27 07:49:21.571	0.2157463	-0.4511058999999989	9.30651085
2026-03-27 07:49:21.817	-1.28467115	0.9218251000000013	10.3362091
2026-03-27 07:49:22.071	-1.28467115	0.9218251000000013	10.3362091
2026-03-27 07:49:22.319	-1.5102241	1.3090553960815646e-15	10.6892485
2026-03-27 07:49:22.570	-1.5102241	1.3090553960815646e-15	10.6892485
2026-03-27 07:49:22.815	-0.69627215	-0.9708583499999988	9.73800345
2026-03-27 07:49:23.071	-0.69627215	-0.9708583499999988	9.73800345
2026-03-27 07:49:23.317	-1.8044236	0.009806650000001168	9.5320638
2026-03-27 07:49:23.571	-1.8044236	0.009806650000001168	9.5320638
2026-03-27 07:49:23.829	-1.2748645	-0.009806649999998805	9.75761675
2026-03-27 07:49:24.071	-1.2748645	-0.009806649999998805	9.75761675
2026-03-27 07:49:24.316	-0.4118793	-1.0100849499999989	9.54187045
2026-03-27 07:49:24.570	-0.4118793	-1.0100849499999989	9.54187045
2026-03-27 07:49:24.815	-1.75539035	0.43149260000000117	9.67916355
2026-03-27 07:49:25.070	-1.75539035	0.43149260000000117	9.67916355
2026-03-27 07:49:25.316	-2.7066354	-0.4118792999999989	9.26728425
2026-03-27 07:49:25.575	-2.7066354	-0.4118792999999989	9.26728425
2026-03-27 07:49:25.817	-1.67693715	-1.0885381499999989	9.1397978
2026-03-27 07:49:26.071	-1.67693715	-1.0885381499999989	9.1397978
2026-03-27 07:49:26.316	-1.53964405	0.3040061500000011	8.8063717
2026-03-27 07:49:26.571	-1.53964405	0.3040061500000011	8.8063717
2026-03-27 07:49:26.815	-0.71588545	-0.3236194499999987	10.56176205
2026-03-27 07:49:27.071	-0.71588545	-0.3236194499999987	10.56176205
2026-03-27 07:49:27.315	-0.20593965	-0.16671304999999875	10.16949605
2026-03-27 07:49:27.571	-0.20593965	-0.16671304999999875	10.16949605
2026-03-27 07:49:27.820	-0.14709975	0.1274864500000011	9.1397978
2026-03-27 07:49:28.071	-0.14709975	0.1274864500000011	9.1397978
2026-03-27 07:49:28.314	-1.99074995	-0.5589790499999987	10.0616229
2026-03-27 07:49:28.571	-1.99074995	-0.5589790499999987	10.0616229
2026-03-27 07:49:28.814	0.5687857000000001	-0.30400614999999886	9.012311350000001
2026-03-27 07:49:29.071	0.5687857000000001	-0.30400614999999886	9.012311350000001
2026-03-27 07:49:29.313	-2.08881645	0.029419950000001055	8.60043205
2026-03-27 07:49:29.570	-2.08881645	0.029419950000001055	8.60043205
2026-03-27 07:49:29.815	0.0196133	-0.32361944999999875	10.05181625
2026-03-27 07:49:30.074	0.0196133	-0.32361944999999875	10.05181625
2026-03-27 07:49:30.318	-1.6082906000000001	0.32361945000000125	10.36562905
2026-03-27 07:49:30.571	-1.6082906000000001	0.32361945000000125	10.36562905
2026-03-27 07:49:30.814	-2.5105024	0.5295591000000012	9.7281968
2026-03-27 07:49:31.071	-2.5105024	0.5295591000000012	9.7281968
2026-03-27 07:49:31.314	-2.46146915	0.24516625000000114	9.4732239
2026-03-27 07:49:31.571	-2.46146915	0.24516625000000114	9.4732239
2026-03-27 07:49:31.813	-2.50069575	0.3236194500000012	9.463417250000001
2026-03-27 07:49:32.070	-2.50069575	0.3236194500000012	9.463417250000001
2026-03-27 07:49:32.322	-2.5105024	0.35303940000000117	9.4732239
2026-03-27 07:49:32.572	-2.5105024	0.35303940000000117	9.4732239
2026-03-27 07:49:32.816	-2.4908891	0.33342610000000117	9.4536106
2026-03-27 07:49:33.071	-2.4908891	0.33342610000000117	9.4536106
2026-03-27 07:49:33.314	-2.5301157	0.5197524500000011	9.4928372
2026-03-27 07:49:33.571	-2.5301157	0.5197524500000011	9.4928372
2026-03-27 07:49:33.815	-2.5105024	0.3432327500000012	9.44380395
2026-03-27 07:49:34.071	-2.5105024	0.3432327500000012	9.44380395
2026-03-27 07:49:34.314	-2.53992235	0.4609125500000012	9.4536106
2026-03-27 07:49:34.575	-2.53992235	0.4609125500000012	9.4536106
2026-03-27 07:49:34.818	-2.5301157	0.3432327500000012	9.4732239
2026-03-27 07:49:35.071	-2.5301157	0.3432327500000012	9.4732239
2026-03-27 07:49:35.320	-2.55953565	0.39226600000000117	9.48303055
2026-03-27 07:49:35.571	-2.55953565	0.39226600000000117	9.48303055
2026-03-27 07:49:35.815	-2.53992235	0.41187930000000117	9.4928372
2026-03-27 07:49:36.071	-2.53992235	0.41187930000000117	9.4928372
2026-03-27 07:49:36.315	-2.5105024	0.3236194500000012	9.463417250000001
2026-03-27 07:49:36.571	-2.5105024	0.3236194500000012	9.463417250000001
2026-03-27 07:49:36.821	-2.5693423	0.43149260000000117	9.4339973
2026-03-27 07:49:37.071	-2.5693423	0.43149260000000117	9.4339973
2026-03-27 07:49:37.316	-2.53992235	0.4609125500000012	9.52225715
2026-03-27 07:49:37.571	-2.53992235	0.4609125500000012	9.52225715
2026-03-27 07:49:37.817	-2.52030905	0.27458620000000117	9.4339973
2026-03-27 07:49:38.071	-2.52030905	0.27458620000000117	9.4339973
2026-03-27 07:49:38.316	-2.52030905	0.29419950000000117	9.4536106
2026-03-27 07:49:38.571	-2.52030905	0.29419950000000117	9.4536106
2026-03-27 07:49:38.828	-2.5889556000000002	0.3628460500000012	9.4928372
2026-03-27 07:49:39.075	-2.5889556000000002	0.3628460500000012	9.4928372
2026-03-27 07:49:39.317	-2.5301157	0.33342610000000117	9.4536106
2026-03-27 07:49:39.571	-2.5301157	0.33342610000000117	9.4536106
2026-03-27 07:49:39.817	-2.61837555	0.29419950000000117	9.551677100000001
2026-03-27 07:49:40.071	-2.61837555	0.29419950000000117	9.551677100000001
2026-03-27 07:49:40.315	-2.55953565	0.5687857000000012	9.42419065
2026-03-27 07:49:40.571	-2.55953565	0.5687857000000012	9.42419065
2026-03-27 07:49:40.816	-2.55953565	0.45110590000000117	9.4536106
2026-03-27 07:49:41.071	-2.55953565	0.45110590000000117	9.4536106
2026-03-27 07:49:41.320	-2.5301157	0.3236194500000012	9.463417250000001
2026-03-27 07:49:41.570	-2.5301157	0.3236194500000012	9.463417250000001
2026-03-27 07:49:41.815	-2.5301157	0.4020726500000012	9.44380395
2026-03-27 07:49:42.071	-2.5301157	0.4020726500000012	9.44380395
2026-03-27 07:49:42.321	-2.59876225	0.4412992500000012	9.4536106
2026-03-27 07:49:42.570	-2.59876225	0.4412992500000012	9.4536106
2026-03-27 07:49:42.815	-2.50069575	0.5001391500000012	9.4339973
2026-03-27 07:49:43.071	-2.50069575	0.5001391500000012	9.4339973
2026-03-27 07:49:43.316	-2.5693423	0.31381280000000117	9.463417250000001
2026-03-27 07:49:43.574	-2.5693423	0.31381280000000117	9.463417250000001
2026-03-27 07:49:43.829	-2.5105024	0.3824593500000012	9.48303055
2026-03-27 07:49:44.071	-2.5105024	0.3824593500000012	9.48303055
2026-03-27 07:49:44.316	-2.42224255	0.10787315000000115	9.40457735
2026-03-27 07:49:44.570	-2.42224255	0.10787315000000115	9.40457735
2026-03-27 07:49:44.814	-2.4908891	0.28439285000000114	9.4536106
2026-03-27 07:49:45.070	-2.4908891	0.28439285000000114	9.4536106
2026-03-27 07:49:45.316	-2.5889556000000002	0.4020726500000012	9.463417250000001
2026-03-27 07:49:45.571	-2.5889556000000002	0.4020726500000012	9.463417250000001
2026-03-27 07:49:45.820	-2.52030905	0.33342610000000117	9.414384
2026-03-27 07:49:46.070	-2.52030905	0.33342610000000117	9.414384
2026-03-27 07:49:46.315	-2.5301157	0.39226600000000117	9.463417250000001
2026-03-27 07:49:46.571	-2.5301157	0.39226600000000117	9.463417250000001
2026-03-27 07:49:46.814	-2.6870221	0.2451662500000012	9.5909037
2026-03-27 07:49:47.070	-2.6870221	0.2451662500000012	9.5909037
2026-03-27 07:49:47.314	-2.5693423	0.37265270000000117	9.551677100000001
2026-03-27 07:49:47.571	-2.5693423	0.37265270000000117	9.551677100000001
2026-03-27 07:49:47.816	-2.55953565	0.3628460500000012	9.4536106
2026-03-27 07:49:48.074	-2.55953565	0.3628460500000012	9.4536106
2026-03-27 07:49:48.319	-2.57914895	0.3628460500000012	9.463417250000001
2026-03-27 07:49:48.570	-2.57914895	0.3628460500000012	9.463417250000001
2026-03-27 07:49:48.815	-2.549729	0.3628460500000012	9.463417250000001
2026-03-27 07:49:49.071	-2.549729	0.3628460500000012	9.463417250000001
2026-03-27 07:49:49.314	-2.52030905	0.35303940000000117	9.463417250000001
2026-03-27 07:49:49.570	-2.52030905	0.35303940000000117	9.463417250000001
2026-03-27 07:49:49.815	-2.53992235	0.35303940000000117	9.4536106
2026-03-27 07:49:50.071	-2.53992235	0.35303940000000117	9.4536106
2026-03-27 07:49:50.323	-2.549729	0.35303940000000117	9.463417250000001
2026-03-27 07:49:50.570	-2.549729	0.35303940000000117	9.463417250000001
2026-03-27 07:49:50.814	-2.5301157	0.31381280000000117	9.463417250000001
2026-03-27 07:49:51.071	-2.5301157	0.31381280000000117	9.463417250000001
2026-03-27 07:49:51.317	-2.55953565	0.28439285000000114	9.4536106
2026-03-27 07:49:51.571	-2.55953565	0.28439285000000114	9.4536106
2026-03-27 07:49:51.815	-2.5301157	0.33342610000000117	9.4732239
2026-03-27 07:49:52.070	-2.5301157	0.33342610000000117	9.4732239
2026-03-27 07:49:52.313	-2.52030905	0.3236194500000012	9.463417250000001
2026-03-27 07:49:52.574	-2.52030905	0.3236194500000012	9.463417250000001
2026-03-27 07:49:52.817	-2.53992235	0.35303940000000117	9.463417250000001
2026-03-27 07:49:53.074	-2.53992235	0.35303940000000117	9.463417250000001
2026-03-27 07:49:53.315	-2.549729	0.3432327500000012	9.463417250000001
2026-03-27 07:49:53.571	-2.549729	0.3432327500000012	9.463417250000001
2026-03-27 07:49:53.815	-2.53992235	0.3628460500000012	9.463417250000001
2026-03-27 07:49:54.071	-2.53992235	0.3628460500000012	9.463417250000001
2026-03-27 07:49:54.315	-2.53992235	0.3628460500000012	9.463417250000001
2026-03-27 07:49:54.571	-2.53992235	0.3628460500000012	9.463417250000001
2026-03-27 07:49:54.818	-2.53992235	0.3628460500000012	9.463417250000001
2026-03-27 07:49:55.071	-2.53992235	0.3628460500000012	9.463417250000001
2026-03-27 07:49:55.315	-2.549729	0.3628460500000012	9.4536106
2026-03-27 07:49:55.571	-2.549729	0.3628460500000012	9.4536106
2026-03-27 07:49:55.819	-2.5301157	0.28439285000000114	9.42419065
2026-03-27 07:49:56.071	-2.5301157	0.28439285000000114	9.42419065
2026-03-27 07:49:56.316	-2.5105024	0.35303940000000117	9.4928372
2026-03-27 07:49:56.571	-2.5105024	0.35303940000000117	9.4928372
2026-03-27 07:49:56.817	-2.6477955	0.47071920000000117	9.5320638
2026-03-27 07:49:57.074	-2.6477955	0.47071920000000117	9.5320638
2026-03-27 07:49:57.318	-1.2356379	0.14709975000000125	10.13026945
2026-03-27 07:49:57.570	-1.2356379	0.14709975000000125	10.13026945
2026-03-27 07:49:57.814	-1.0395049	-1.1179580999999987	9.95374975
2026-03-27 07:49:58.072	-1.0395049	-1.1179580999999987	9.95374975
2026-03-27 07:49:58.314	0.2941995	0.8139519500000011	9.62032365
2026-03-27 07:49:58.571	0.2941995	0.8139519500000011	9.62032365
2026-03-27 07:49:58.814	-1.14737805	-1.578870649999999	8.8848249
2026-03-27 07:49:59.071	-1.14737805	-1.578870649999999	8.8848249
2026-03-27 07:49:59.321	0.36284605000000003	-1.343511049999999	9.0809579
2026-03-27 07:49:59.571	0.36284605000000003	-1.343511049999999	9.0809579
2026-03-27 07:49:59.815	-1.99074995	-0.3236194499999987	10.60098865
2026-03-27 07:50:00.071	-1.99074995	-0.3236194499999987	10.60098865
2026-03-27 07:50:00.314	-0.588399	-2.1182363999999985	10.58137535
2026-03-27 07:50:00.571	-0.588399	-2.1182363999999985	10.58137535
2026-03-27 07:50:00.815	-0.0980665	-1.5494506999999988	8.34545915
2026-03-27 07:50:01.071	-0.0980665	-1.5494506999999988	8.34545915
2026-03-27 07:50:01.316	0.51975245	-1.9907499499999985	10.28717585
2026-03-27 07:50:01.574	0.51975245	-1.9907499499999985	10.28717585
2026-03-27 07:50:01.819	0.3530394	-1.9221033999999988	9.6889702
2026-03-27 07:50:02.071	0.3530394	-1.9221033999999988	9.6889702
2026-03-27 07:50:02.313	-0.12748645	-1.0002782999999988	9.75761675
2026-03-27 07:50:02.572	-0.12748645	-1.0002782999999988	9.75761675
2026-03-27 07:50:02.813	-1.18660465	-2.539922349999999	9.8654899
2026-03-27 07:50:03.071	-1.18660465	-2.539922349999999	9.8654899
2026-03-27 07:50:03.315	0.10787315	-2.177076299999999	10.14988275
2026-03-27 07:50:03.570	0.10787315	-2.177076299999999	10.14988275
2026-03-27 07:50:03.823	1.32389775	-2.3535959999999987	10.4342756
2026-03-27 07:50:04.071	1.32389775	-2.3535959999999987	10.4342756
2026-03-27 07:50:04.314	-0.59820565	-1.2944777999999986	10.36562905
2026-03-27 07:50:04.570	-0.59820565	-1.2944777999999986	10.36562905
2026-03-27 07:50:04.821	-0.8433719	-1.647517199999999	9.6889702
2026-03-27 07:50:05.071	-0.8433719	-1.647517199999999	9.6889702
2026-03-27 07:50:05.316	-1.14737805	-2.029976549999999	9.3555441
2026-03-27 07:50:05.570	-1.14737805	-2.029976549999999	9.3555441
2026-03-27 07:50:05.816	-1.1375714000000001	-2.245722849999999	9.5712904
2026-03-27 07:50:06.075	-1.1375714000000001	-2.245722849999999	9.5712904
2026-03-27 07:50:06.318	-1.3533177	-2.647795499999999	10.1400761
2026-03-27 07:50:06.570	-1.3533177	-2.647795499999999	10.1400761
2026-03-27 07:50:06.815	-0.5099458	-2.6870220999999987	8.32584585
2026-03-27 07:50:07.070	-0.5099458	-2.6870220999999987	8.32584585
2026-03-27 07:50:07.316	0.63743225	-1.8632634999999989	9.40457735
2026-03-27 07:50:07.570	0.63743225	-1.8632634999999989	9.40457735
2026-03-27 07:50:07.814	0.4511059	-1.4513841999999988	9.7085835
2026-03-27 07:50:08.070	0.4511059	-1.4513841999999988	9.7085835
2026-03-27 07:50:08.321	-0.50013915	-1.1571846999999988	9.2378643
2026-03-27 07:50:08.570	-0.50013915	-1.1571846999999988	9.2378643
2026-03-27 07:50:08.813	-1.4906108	-1.2454445499999989	8.9828914
2026-03-27 07:50:09.070	-1.4906108	-1.2454445499999989	8.9828914
2026-03-27 07:50:09.318	0.57859235	-2.324176049999999	10.002783
2026-03-27 07:50:09.570	0.57859235	-2.324176049999999	10.002783
2026-03-27 07:50:09.815	0.8041453000000001	-0.6276255999999989	8.8848249
2026-03-27 07:50:10.070	0.8041453000000001	-0.6276255999999989	8.8848249
2026-03-27 07:50:10.316	0.50013915	-1.019891599999999	9.4928372
2026-03-27 07:50:10.575	0.50013915	-1.019891599999999	9.4928372
2026-03-27 07:50:10.819	-0.9414384	-2.079009799999999	9.91452315
2026-03-27 07:50:11.070	-0.9414384	-2.079009799999999	9.91452315
2026-03-27 07:50:11.315	-0.8629852	-2.275142799999999	8.42391235
2026-03-27 07:50:11.571	-0.8629852	-2.275142799999999	8.42391235
2026-03-27 07:50:11.812	0.6276256	-1.912296749999999	9.81645665
2026-03-27 07:50:12.070	0.6276256	-1.912296749999999	9.81645665
2026-03-27 07:50:12.317	-0.6864655	-1.0002782999999988	9.22805765
2026-03-27 07:50:12.570	-0.6864655	-1.0002782999999988	9.22805765
2026-03-27 07:50:12.822	-0.95124505	-2.569342299999999	7.93357985
2026-03-27 07:50:13.070	-0.95124505	-2.569342299999999	7.93357985
2026-03-27 07:50:13.314	-0.0196133	-0.8727918499999989	9.1201845
2026-03-27 07:50:13.570	-0.0196133	-0.8727918499999989	9.1201845
2026-03-27 07:50:13.816	-0.97085835	-2.177076299999999	9.6301303
2026-03-27 07:50:14.070	-0.97085835	-2.177076299999999	9.6301303
2026-03-27 07:50:14.316	-0.02941995	-1.6867437999999988	9.463417250000001
2026-03-27 07:50:14.571	-0.02941995	-1.6867437999999988	9.463417250000001
2026-03-27 07:50:14.814	1.10815145	-1.4808041499999989	9.6497436
2026-03-27 07:50:15.074	1.10815145	-1.4808041499999989	9.6497436
2026-03-27 07:50:15.319	-0.6864655	-0.2549728999999987	10.5323421
2026-03-27 07:50:15.570	-0.6864655	-0.2549728999999987	10.5323421
2026-03-27 07:50:15.815	-0.0196133	-2.0201698999999986	10.42446895
2026-03-27 07:50:16.070	-0.0196133	-2.0201698999999986	10.42446895
2026-03-27 07:50:16.316	-0.61781895	-3.3146476999999988	10.16949605
2026-03-27 07:50:16.570	-0.61781895	-3.3146476999999988	10.16949605
2026-03-27 07:50:16.815	0.5295591	-2.049589849999999	10.05181625
2026-03-27 07:50:17.071	0.5295591	-2.049589849999999	10.05181625
2026-03-27 07:50:17.323	1.18660465	-1.971136649999999	9.218251
2026-03-27 07:50:17.571	1.18660465	-1.971136649999999	9.218251
2026-03-27 07:50:17.813	0.3138128	-2.000556599999999	9.28689755
2026-03-27 07:50:18.071	0.3138128	-2.000556599999999	9.28689755
2026-03-27 07:50:18.313	-0.51975245	-2.941994999999999	9.91452315
2026-03-27 07:50:18.574	-0.51975245	-2.941994999999999	9.91452315
2026-03-27 07:50:18.815	0.55897905	-0.9512450499999987	9.85568325
2026-03-27 07:50:19.071	0.55897905	-0.9512450499999987	9.85568325
2026-03-27 07:50:19.316	0.3138128	-1.2356378999999988	9.4732239
2026-03-27 07:50:19.575	0.3138128	-1.2356378999999988	9.4732239
2026-03-27 07:50:19.818	-0.392266	0.5883990000000012	10.4735022
2026-03-27 07:50:20.071	-0.392266	0.5883990000000012	10.4735022
2026-03-27 07:50:20.319	-0.48052585000000003	-1.0787314999999988	10.32640245
2026-03-27 07:50:20.570	-0.48052585000000003	-1.0787314999999988	10.32640245
2026-03-27 07:50:20.817	0.3726527	-1.6377105499999989	9.8262633
2026-03-27 07:50:21.071	0.3726527	-1.6377105499999989	9.8262633
2026-03-27 07:50:21.317	-0.784532	-1.745583699999999	9.1986377
2026-03-27 07:50:21.571	-0.784532	-1.745583699999999	9.1986377
2026-03-27 07:50:21.821	-0.9414384	-1.431770899999999	9.3163175
2026-03-27 07:50:22.071	-0.9414384	-1.431770899999999	9.3163175
2026-03-27 07:50:22.316	-1.55925735	-1.0591181999999988	9.7674234
2026-03-27 07:50:22.571	-1.55925735	-1.0591181999999988	9.7674234
2026-03-27 07:50:22.814	-1.55925735	-1.108151449999999	9.32612415
2026-03-27 07:50:23.071	-1.55925735	-1.108151449999999	9.32612415
2026-03-27 07:50:23.317	-0.7453054	-1.333704399999999	10.091042850000001
2026-03-27 07:50:23.571	-0.7453054	-1.333704399999999	10.091042850000001
2026-03-27 07:50:23.814	-1.87307015	-1.176797999999999	9.26728425
2026-03-27 07:50:24.074	-1.87307015	-1.176797999999999	9.26728425
2026-03-27 07:50:24.318	-2.20649625	0.5491724000000012	9.73800345
2026-03-27 07:50:24.571	-2.20649625	0.5491724000000012	9.73800345
2026-03-27 07:50:24.814	-1.71616375	-0.09806649999999886	9.2967042
2026-03-27 07:50:25.071	-1.71616375	-0.09806649999999886	9.2967042
2026-03-27 07:50:25.314	-0.20593965	1.3337044000000011	9.75761675
2026-03-27 07:50:25.571	-0.20593965	1.3337044000000011	9.75761675
2026-03-27 07:50:25.814	0.12748645	0.7158854500000013	9.9635564
2026-03-27 07:50:26.071	0.12748645	0.7158854500000013	9.9635564
2026-03-27 07:50:26.321	1.46119085	-0.7649186999999988	9.48303055
2026-03-27 07:50:26.570	1.46119085	-0.7649186999999988	9.48303055
2026-03-27 07:50:26.815	0.91201845	-0.5491723999999988	9.79684335
2026-03-27 07:50:27.071	0.91201845	-0.5491723999999988	9.79684335
2026-03-27 07:50:27.315	1.0983448	0.1470997500000012	9.67916355
2026-03-27 07:50:27.570	1.0983448	0.1470997500000012	9.67916355
2026-03-27 07:50:27.814	0.7453054	1.314091100000001	7.97280645
2026-03-27 07:50:28.071	0.7453054	1.314091100000001	7.97280645
2026-03-27 07:50:28.314	0.99047165	-0.029419949999998744	10.2577559
2026-03-27 07:50:28.573	0.99047165	-0.029419949999998744	10.2577559
2026-03-27 07:50:28.822	0.5295591	-1.0787314999999988	10.198916
2026-03-27 07:50:29.070	0.5295591	-1.0787314999999988	10.198916
2026-03-27 07:50:29.314	1.06892485	0.3922660000000013	10.03220295
2026-03-27 07:50:29.570	1.06892485	0.3922660000000013	10.03220295
2026-03-27 07:50:29.815	0.7453054	-1.8632634999999989	9.9831697
2026-03-27 07:50:30.070	0.7453054	-1.8632634999999989	9.9831697
2026-03-27 07:50:30.314	1.7063571	-0.4412992499999988	9.50264385
2026-03-27 07:50:30.569	1.7063571	-0.4412992499999988	9.50264385
2026-03-27 07:50:30.821	0.95124505	0.009806650000001185	9.6693569
2026-03-27 07:50:31.070	0.95124505	0.009806650000001185	9.6693569
2026-03-27 07:50:31.314	1.32389775	0.28439285000000114	8.97308475
2026-03-27 07:50:31.570	1.32389775	0.28439285000000114	8.97308475
2026-03-27 07:50:31.816	0.588399	-0.25497289999999884	9.58109705
2026-03-27 07:50:32.070	0.588399	-0.25497289999999884	9.58109705
2026-03-27 07:50:32.317	1.02969825	-0.18632634999999886	9.3947707
2026-03-27 07:50:32.570	1.02969825	-0.18632634999999886	9.3947707
2026-03-27 07:50:32.814	1.53964405	-0.4511058999999989	8.8455983
2026-03-27 07:50:33.073	1.53964405	-0.4511058999999989	8.8455983
2026-03-27 07:50:33.320	3.0596748	-0.058839899999998835	9.50264385
2026-03-27 07:50:33.570	3.0596748	-0.058839899999998835	9.50264385
2026-03-27 07:50:33.816	3.334261	-0.06864654999999886	9.34573745
2026-03-27 07:50:34.070	3.334261	-0.06864654999999886	9.34573745
2026-03-27 07:50:34.315	3.2361945	-0.08825984999999884	9.551677100000001
2026-03-27 07:50:34.570	3.2361945	-0.08825984999999884	9.551677100000001
2026-03-27 07:50:34.814	3.3146477	-0.21574629999999892	8.825985
2026-03-27 07:50:35.070	3.3146477	-0.21574629999999892	8.825985
2026-03-27 07:50:35.322	2.71644205	0.6864655000000012	8.60043205
2026-03-27 07:50:35.570	2.71644205	0.6864655000000012	8.60043205
2026-03-27 07:50:35.816	2.2359162	1.0395049000000012	9.81645665
2026-03-27 07:50:36.070	2.2359162	1.0395049000000012	9.81645665
2026-03-27 07:50:36.315	1.59848395	1.4317709000000012	9.7085835
2026-03-27 07:50:36.570	1.59848395	1.4317709000000012	9.7085835
2026-03-27 07:50:36.813	0.6668522	-0.14709974999999884	9.5124505
2026-03-27 07:50:37.070	0.6668522	-0.14709974999999884	9.5124505
2026-03-27 07:50:37.314	0.9022118	-0.27458619999999884	9.6693569
2026-03-27 07:50:37.573	0.9022118	-0.27458619999999884	9.6693569
2026-03-27 07:50:37.818	0.1569064	-0.1372930999999988	9.87529655
2026-03-27 07:50:38.070	0.1569064	-0.1372930999999988	9.87529655
2026-03-27 07:50:38.314	0.30400615	0.03922660000000119	9.6497436
2026-03-27 07:50:38.570	0.30400615	0.03922660000000119	9.6497436
2026-03-27 07:50:38.815	0.1569064	-0.1667130499999988	9.639936950000001
2026-03-27 07:50:39.070	0.1569064	-0.1667130499999988	9.639936950000001
2026-03-27 07:50:39.316	-0.3726527	-0.3040061499999988	9.6497436
2026-03-27 07:50:39.570	-0.3726527	-0.3040061499999988	9.6497436
2026-03-27 07:50:39.819	-0.20593965	-0.1274864499999988	9.8851032
2026-03-27 07:50:40.070	-0.20593965	-0.1274864499999988	9.8851032
2026-03-27 07:50:40.312	0.1176798	-0.27458619999999884	9.7478101
2026-03-27 07:50:40.570	0.1176798	-0.27458619999999884	9.7478101
2026-03-27 07:50:40.812	-0.61781895	-0.31381279999999884	9.71839015
2026-03-27 07:50:41.070	-0.61781895	-0.31381279999999884	9.71839015
2026-03-27 07:50:41.315	0.2157463	-0.3922659999999989	9.218251
2026-03-27 07:50:41.571	0.2157463	-0.3922659999999989	9.218251
2026-03-27 07:50:41.813	-0.588399	-0.019613299999998845	9.4339973
2026-03-27 07:50:42.073	-0.588399	-0.019613299999998845	9.4339973
2026-03-27 07:50:42.319	-0.6864655	-0.12748644999999886	9.1986377
2026-03-27 07:50:42.570	-0.6864655	-0.12748644999999886	9.1986377
2026-03-27 07:50:42.814	-0.95124505	-0.6472388999999987	10.1204628
2026-03-27 07:50:43.070	-0.95124505	-0.6472388999999987	10.1204628
2026-03-27 07:50:43.315	-0.784532	-0.35303939999999884	9.95374975
2026-03-27 07:50:43.570	-0.784532	-0.35303939999999884	9.95374975
2026-03-27 07:50:43.814	-0.42168595	0.029419950000001173	9.58109705
2026-03-27 07:50:44.070	-0.42168595	0.029419950000001173	9.58109705
2026-03-27 07:50:44.322	-0.2157463	0.10787315000000118	9.6693569
2026-03-27 07:50:44.570	-0.2157463	0.10787315000000118	9.6693569
2026-03-27 07:50:44.815	-0.4314926	-0.09806649999999878	9.9243298
2026-03-27 07:50:45.070	-0.4314926	-0.09806649999999878	9.9243298
2026-03-27 07:50:45.314	-0.10787315	-0.1765196999999988	9.7870367
2026-03-27 07:50:45.570	-0.10787315	-0.1765196999999988	9.7870367
2026-03-27 07:50:45.815	-0.26477955	-0.01961329999999879	9.8851032
2026-03-27 07:50:46.071	-0.26477955	-0.01961329999999879	9.8851032
2026-03-27 07:50:46.314	-0.04903325	-0.11767979999999882	9.6497436
2026-03-27 07:50:46.574	-0.04903325	-0.11767979999999882	9.6497436
2026-03-27 07:50:46.815	-0.2549729	-0.0784531999999988	9.81645665
2026-03-27 07:50:47.071	-0.2549729	-0.0784531999999988	9.81645665
2026-03-27 07:50:47.314	-0.1176798	-0.1176797999999988	9.80665
2026-03-27 07:50:47.571	-0.1176798	-0.1176797999999988	9.80665
2026-03-27 07:50:47.814	-0.2353596	-0.0686465499999988	9.8654899
2026-03-27 07:50:48.071	-0.2353596	-0.0686465499999988	9.8654899
2026-03-27 07:50:48.313	-0.08825985	-0.09806649999999882	9.6889702
2026-03-27 07:50:48.571	-0.08825985	-0.09806649999999882	9.6889702
2026-03-27 07:50:48.819	-0.2745862	-0.1470997499999988	9.8654899
2026-03-27 07:50:49.071	-0.2745862	-0.1470997499999988	9.8654899
2026-03-27 07:50:49.313	-0.0980665	-0.029419949999998803	9.7870367
2026-03-27 07:50:49.570	-0.0980665	-0.029419949999998803	9.7870367
2026-03-27 07:50:49.813	-0.16671305	-0.1274864499999988	9.7870367
2026-03-27 07:50:50.071	-0.16671305	-0.1274864499999988	9.7870367
2026-03-27 07:50:50.317	-0.24516625	-0.0784531999999988	9.8262633
2026-03-27 07:50:50.570	-0.24516625	-0.0784531999999988	9.8262633
2026-03-27 07:50:50.814	-0.1176798	-0.1569063999999988	9.7870367
2026-03-27 07:50:51.074	-0.1176798	-0.1569063999999988	9.7870367
2026-03-27 07:50:51.318	-0.1765197	-0.06864654999999881	9.71839015
2026-03-27 07:50:51.569	-0.1765197	-0.06864654999999881	9.71839015
2026-03-27 07:50:51.816	-0.14709975	0.02941995000000119	9.71839015
2026-03-27 07:50:52.071	-0.14709975	0.02941995000000119	9.71839015
2026-03-27 07:50:52.314	-0.1176798	-0.20593964999999878	9.85568325
2026-03-27 07:50:52.570	-0.1176798	-0.20593964999999878	9.85568325
2026-03-27 07:50:52.815	-0.26477955	-0.0588398999999988	9.8458766
2026-03-27 07:50:53.070	-0.26477955	-0.0588398999999988	9.8458766
2026-03-27 07:50:53.321	-0.0196133	0.009806650000001188	9.7085835
2026-03-27 07:50:53.570	-0.0196133	0.009806650000001188	9.7085835
2026-03-27 07:50:53.814	-0.26477955	-0.24516624999999878	9.85568325
2026-03-27 07:50:54.070	-0.26477955	-0.24516624999999878	9.85568325
2026-03-27 07:50:54.320	-0.16671305	-0.0294199499999988	9.81645665
2026-03-27 07:50:54.570	-0.16671305	-0.0294199499999988	9.81645665
2026-03-27 07:50:54.814	-0.08825985	-0.09806649999999882	9.69877685
2026-03-27 07:50:55.070	-0.08825985	-0.09806649999999882	9.69877685
2026-03-27 07:50:55.315	-0.20593965	-0.1470997499999988	9.85568325
2026-03-27 07:50:55.573	-0.20593965	-0.1470997499999988	9.85568325
2026-03-27 07:50:55.818	-0.16671305	-0.0980664999999988	9.8262633
2026-03-27 07:50:56.069	-0.16671305	-0.0980664999999988	9.8262633
2026-03-27 07:50:56.313	-0.2157463	-0.1372930999999988	9.83606995
2026-03-27 07:50:56.570	-0.2157463	-0.1372930999999988	9.83606995
2026-03-27 07:50:56.815	-0.0784532	-0.1470997499999988	9.7478101
2026-03-27 07:50:57.070	-0.0784532	-0.1470997499999988	9.7478101
2026-03-27 07:50:57.315	-0.22555295	-0.0686465499999988	9.79684335
2026-03-27 07:50:57.570	-0.22555295	-0.0686465499999988	9.79684335
2026-03-27 07:50:57.819	-0.08825985	-0.1569063999999988	9.77723005
2026-03-27 07:50:58.070	-0.08825985	-0.1569063999999988	9.77723005
2026-03-27 07:50:58.313	-0.2941995	-0.0980664999999988	9.8262633
2026-03-27 07:50:58.570	-0.2941995	-0.0980664999999988	9.8262633
2026-03-27 07:50:58.813	-0.02941995	-0.05883989999999881	9.71839015
2026-03-27 07:50:59.073	-0.02941995	-0.05883989999999881	9.71839015
2026-03-27 07:50:59.315	-0.3138128	-0.12748644999999878	9.9047165
2026-03-27 07:50:59.570	-0.3138128	-0.12748644999999878	9.9047165
2026-03-27 07:50:59.814	-0.08825985	-0.1176797999999988	9.75761675
2026-03-27 07:51:00.073	-0.08825985	-0.1176797999999988	9.75761675
2026-03-27 07:51:00.318	-0.28439285000000003	1.1985663167792674e-15	9.7870367
2026-03-27 07:51:00.570	-0.28439285000000003	1.1985663167792674e-15	9.7870367
2026-03-27 07:51:00.813	-0.16671305	-0.0980664999999988	9.85568325
2026-03-27 07:51:01.070	-0.16671305	-0.0980664999999988	9.85568325
2026-03-27 07:51:01.314	-0.32361945000000003	-0.1274864499999988	9.83606995
2026-03-27 07:51:01.570	-0.32361945000000003	-0.1274864499999988	9.83606995
2026-03-27 07:51:01.817	-0.196133	-0.019613299999998803	9.7674234
2026-03-27 07:51:02.071	-0.196133	-0.019613299999998803	9.7674234
2026-03-27 07:51:02.315	-0.30400615	-0.009806649999998794	9.8458766
2026-03-27 07:51:02.570	-0.30400615	-0.009806649999998794	9.8458766
2026-03-27 07:51:02.814	0.02941995	-0.1961329999999988	9.7674234
2026-03-27 07:51:03.071	0.02941995	-0.1961329999999988	9.7674234
2026-03-27 07:51:03.315	-0.28439285000000003	-0.0882598499999988	9.8458766
2026-03-27 07:51:03.570	-0.28439285000000003	-0.0882598499999988	9.8458766
2026-03-27 07:51:03.813	-0.1176798	-0.1470997499999988	9.75761675
2026-03-27 07:51:04.070	-0.1176798	-0.1470997499999988	9.75761675
2026-03-27 07:51:04.316	-0.22555295	-0.10787314999999882	9.69877685
2026-03-27 07:51:04.574	-0.22555295	-0.10787314999999882	9.69877685
2026-03-27 07:51:04.818	-0.16671305	-0.1176797999999988	9.83606995
2026-03-27 07:51:05.070	-0.16671305	-0.1176797999999988	9.83606995
2026-03-27 07:51:05.314	-0.20593965	-0.0784531999999988	9.80665
2026-03-27 07:51:05.570	-0.20593965	-0.0784531999999988	9.80665
2026-03-27 07:51:05.814	-0.16671305	-0.03922659999999879	9.83606995
2026-03-27 07:51:06.070	-0.16671305	-0.03922659999999879	9.83606995
2026-03-27 07:51:06.315	-0.0980665	-0.08825984999999882	9.69877685
2026-03-27 07:51:06.570	-0.0980665	-0.08825984999999882	9.69877685
2026-03-27 07:51:06.816	-0.18632635	-0.0686465499999988	9.8851032
2026-03-27 07:51:07.070	-0.18632635	-0.0686465499999988	9.8851032
2026-03-27 07:51:07.315	-0.2157463	-0.0980664999999988	9.80665
2026-03-27 07:51:07.570	-0.2157463	-0.0980664999999988	9.80665
2026-03-27 07:51:07.816	-0.16671305	-0.04903324999999881	9.73800345
2026-03-27 07:51:08.071	-0.16671305	-0.04903324999999881	9.73800345
2026-03-27 07:51:08.315	-0.0784532	-0.0294199499999988	9.80665
2026-03-27 07:51:08.570	-0.0784532	-0.0294199499999988	9.80665
2026-03-27 07:51:08.813	-0.26477955	-0.1372930999999988	9.85568325
2026-03-27 07:51:09.075	-0.26477955	-0.1372930999999988	9.85568325
2026-03-27 07:51:09.330	-0.08825985	-0.12748644999999878	9.9047165
2026-03-27 07:51:09.570	-0.08825985	-0.12748644999999878	9.9047165
2026-03-27 07:51:09.814	-0.1765197	-0.0882598499999988	9.7674234
2026-03-27 07:51:10.070	-0.1765197	-0.0882598499999988	9.7674234
2026-03-27 07:51:10.317	-0.16671305	-0.07845319999999881	9.71839015
2026-03-27 07:51:10.570	-0.16671305	-0.07845319999999881	9.71839015
2026-03-27 07:51:10.814	-0.1176798	-0.0980664999999988	9.80665
2026-03-27 07:51:11.070	-0.1176798	-0.0980664999999988	9.80665
2026-03-27 07:51:11.322	-0.2353596	-0.1274864499999988	9.8458766
2026-03-27 07:51:11.570	-0.2353596	-0.1274864499999988	9.8458766
2026-03-27 07:51:11.813	-0.12748645	-0.0686465499999988	9.7870367
2026-03-27 07:51:12.070	-0.12748645	-0.0686465499999988	9.7870367
2026-03-27 07:51:12.315	-0.14709975	-0.0882598499999988	9.75761675
2026-03-27 07:51:12.570	-0.14709975	-0.0882598499999988	9.75761675
2026-03-27 07:51:12.813	-0.22555295	-0.1176797999999988	9.8262633
2026-03-27 07:51:13.070	-0.22555295	-0.1176797999999988	9.8262633
2026-03-27 07:51:13.315	-0.1569064	-0.0588398999999988	9.83606995
2026-03-27 07:51:13.573	-0.1569064	-0.0588398999999988	9.83606995
2026-03-27 07:51:13.818	-0.2157463	-0.1569063999999988	9.8262633
2026-03-27 07:51:14.070	-0.2157463	-0.1569063999999988	9.8262633
2026-03-27 07:51:14.314	-0.16671305	-0.009806649999998796	9.8262633
2026-03-27 07:51:14.569	-0.16671305	-0.009806649999998796	9.8262633
2026-03-27 07:51:14.814	-0.0588399	-0.1274864499999988	9.7674234
2026-03-27 07:51:15.070	-0.0588399	-0.1274864499999988	9.7674234
2026-03-27 07:51:15.316	-0.22555295	-0.0882598499999988	9.81645665
2026-03-27 07:51:15.569	-0.22555295	-0.0882598499999988	9.81645665
2026-03-27 07:51:15.820	-0.10787315	-0.0882598499999988	9.75761675
2026-03-27 07:51:16.070	-0.10787315	-0.0882598499999988	9.75761675
2026-03-27 07:51:16.317	-0.1569064	-0.08825984999999882	9.73800345
2026-03-27 07:51:16.569	-0.1569064	-0.08825984999999882	9.73800345
2026-03-27 07:51:16.814	-0.1372931	-0.0588398999999988	9.81645665
2026-03-27 07:51:17.070	-0.1372931	-0.0588398999999988	9.81645665
2026-03-27 07:51:17.313	-0.20593965	-0.11767979999999878	9.91452315
2026-03-27 07:51:17.569	-0.20593965	-0.11767979999999878	9.91452315
2026-03-27 07:51:17.821	-0.26477955	-0.1078731499999988	9.83606995
2026-03-27 07:51:18.074	-0.26477955	-0.1078731499999988	9.83606995
2026-03-27 07:51:18.319	-0.16671305	-0.009806649999998808	9.7281968
2026-03-27 07:51:18.570	-0.16671305	-0.009806649999998808	9.7281968
2026-03-27 07:51:18.816	-0.1765197	-0.009806649999998807	9.7478101
2026-03-27 07:51:19.069	-0.1765197	-0.009806649999998807	9.7478101
2026-03-27 07:51:19.314	-0.22555295	-0.16671304999999878	9.9047165
2026-03-27 07:51:19.570	-0.22555295	-0.16671304999999878	9.9047165
2026-03-27 07:51:19.814	-0.1372931	-0.06864654999999881	9.77723005
2026-03-27 07:51:20.069	-0.1372931	-0.06864654999999881	9.77723005
2026-03-27 07:51:20.319	-0.196133	-0.05883989999999881	9.71839015
2026-03-27 07:51:20.570	-0.196133	-0.05883989999999881	9.71839015
2026-03-27 07:51:20.815	-0.1765197	-0.1569063999999988	9.83606995
2026-03-27 07:51:21.070	-0.1765197	-0.1569063999999988	9.83606995
2026-03-27 07:51:21.315	-0.196133	-0.12748644999999878	9.89490985
2026-03-27 07:51:21.570	-0.196133	-0.12748644999999878	9.89490985
2026-03-27 07:51:21.813	-0.1765197	-0.1078731499999988	9.8262633
2026-03-27 07:51:22.069	-0.1765197	-0.1078731499999988	9.8262633
2026-03-27 07:51:22.314	-0.0784532	-0.1470997499999988	9.65955025
2026-03-27 07:51:22.574	-0.0784532	-0.1470997499999988	9.65955025
2026-03-27 07:51:22.819	-0.196133	-0.05883989999999879	9.8654899
2026-03-27 07:51:23.070	-0.196133	-0.05883989999999879	9.8654899
2026-03-27 07:51:23.314	-0.18632635	-0.0784531999999988	9.87529655
2026-03-27 07:51:23.570	-0.18632635	-0.0784531999999988	9.87529655
2026-03-27 07:51:23.812	-0.0588399	-0.10787314999999882	9.71839015
2026-03-27 07:51:24.070	-0.0588399	-0.10787314999999882	9.71839015
2026-03-27 07:51:24.316	-0.16671305	-0.05883989999999881	9.7281968
2026-03-27 07:51:24.570	-0.16671305	-0.05883989999999881	9.7281968
2026-03-27 07:51:24.820	-0.2157463	-0.1176797999999988	9.8654899
2026-03-27 07:51:25.070	-0.2157463	-0.1176797999999988	9.8654899
2026-03-27 07:51:25.314	-0.16671305	-0.0784531999999988	9.8458766
2026-03-27 07:51:25.570	-0.16671305	-0.0784531999999988	9.8458766
2026-03-27 07:51:25.813	-0.1569064	-0.1078731499999988	9.79684335
2026-03-27 07:51:26.070	-0.1569064	-0.1078731499999988	9.79684335
2026-03-27 07:51:26.313	-0.18632635	-0.1274864499999988	9.7674234
2026-03-27 07:51:26.570	-0.18632635	-0.1274864499999988	9.7674234
2026-03-27 07:51:26.814	-0.14709975	-0.0882598499999988	9.83606995
2026-03-27 07:51:27.072	-0.14709975	-0.0882598499999988	9.83606995
2026-03-27 07:51:27.319	-0.1372931	-0.1372930999999988	9.81645665
2026-03-27 07:51:27.570	-0.1372931	-0.1372930999999988	9.81645665
2026-03-27 07:51:27.812	-0.18632635	-0.0588398999999988	9.81645665
2026-03-27 07:51:28.070	-0.18632635	-0.0588398999999988	9.81645665
2026-03-27 07:51:28.314	-0.1765197	-0.1765196999999988	9.79684335
2026-03-27 07:51:28.570	-0.1765197	-0.1765196999999988	9.79684335
2026-03-27 07:51:28.814	-0.1372931	-0.0784531999999988	9.7870367
2026-03-27 07:51:29.070	-0.1372931	-0.0784531999999988	9.7870367
2026-03-27 07:51:29.320	-0.18632635	-0.0784531999999988	9.80665
2026-03-27 07:51:29.570	-0.18632635	-0.0784531999999988	9.80665
2026-03-27 07:51:29.813	-0.196133	-0.1569063999999988	9.83606995
2026-03-27 07:51:30.070	-0.196133	-0.1569063999999988	9.83606995
2026-03-27 07:51:30.314	-0.14709975	-0.019613299999998814	9.69877685
2026-03-27 07:51:30.570	-0.14709975	-0.019613299999998814	9.69877685
2026-03-27 07:51:30.815	-0.24516625	-0.13729309999999878	9.93413645
2026-03-27 07:51:31.070	-0.24516625	-0.13729309999999878	9.93413645
2026-03-27 07:51:31.315	-0.18632635	-0.14709974999999878	9.9243298
2026-03-27 07:51:31.574	-0.18632635	-0.14709974999999878	9.9243298
2026-03-27 07:51:31.821	-0.16671305	-0.009806649999998805	9.75761675
2026-03-27 07:51:32.070	-0.16671305	-0.009806649999998805	9.75761675
2026-03-27 07:51:32.314	-0.12748645	-0.11767979999999882	9.67916355
2026-03-27 07:51:32.570	-0.12748645	-0.11767979999999882	9.67916355
2026-03-27 07:51:32.813	-0.16671305	-0.04903324999999881	9.75761675
2026-03-27 07:51:33.070	-0.16671305	-0.04903324999999881	9.75761675
2026-03-27 07:51:33.314	-0.18632635	-0.1176797999999988	9.8654899
2026-03-27 07:51:33.570	-0.18632635	-0.1176797999999988	9.8654899
2026-03-27 07:51:33.818	-0.1569064	-0.0882598499999988	9.8458766
2026-03-27 07:51:34.070	-0.1569064	-0.0882598499999988	9.8458766
2026-03-27 07:51:34.313	-0.1765197	-0.0980664999999988	9.77723005
2026-03-27 07:51:34.570	-0.1765197	-0.0980664999999988	9.77723005
2026-03-27 07:51:34.814	-0.16671305	-0.0882598499999988	9.7478101
2026-03-27 07:51:35.070	-0.16671305	-0.0882598499999988	9.7478101
2026-03-27 07:51:35.313	0.24516625	-0.1470997499999988	9.77723005
2026-03-27 07:51:35.569	0.24516625	-0.1470997499999988	9.77723005
2026-03-27 07:51:35.812	-0.10787315	-0.0882598499999988	9.7870367
2026-03-27 07:51:36.073	-0.10787315	-0.0882598499999988	9.7870367
2026-03-27 07:51:36.318	-0.36284605000000003	-0.08825984999999878	9.89490985
2026-03-27 07:51:36.569	-0.36284605000000003	-0.08825984999999878	9.89490985
2026-03-27 07:51:36.814	-0.2157463	-0.0980664999999988	9.81645665
2026-03-27 07:51:37.070	-0.2157463	-0.0980664999999988	9.81645665
2026-03-27 07:51:37.313	-0.196133	-0.05883989999999881	9.7478101
2026-03-27 07:51:37.569	-0.196133	-0.05883989999999881	9.7478101
2026-03-27 07:51:37.814	-0.2353596	-0.1667130499999988	9.7674234
2026-03-27 07:51:38.069	-0.2353596	-0.1667130499999988	9.7674234
2026-03-27 07:51:38.320	-0.20593965	-0.04903324999999879	9.89490985
2026-03-27 07:51:38.569	-0.20593965	-0.04903324999999879	9.89490985
2026-03-27 07:51:38.815	-0.22555295	-0.1274864499999988	9.7870367
2026-03-27 07:51:39.069	-0.22555295	-0.1274864499999988	9.7870367
2026-03-27 07:51:39.314	-0.16671305	-0.0882598499999988	9.80665
2026-03-27 07:51:39.571	-0.16671305	-0.0882598499999988	9.80665
2026-03-27 07:51:39.814	-0.1569064	-0.04903324999999881	9.7085835
2026-03-27 07:51:40.069	-0.1569064	-0.04903324999999881	9.7085835
2026-03-27 07:51:40.314	-0.1765197	-0.1176797999999988	9.77723005
2026-03-27 07:51:40.573	-0.1765197	-0.1176797999999988	9.77723005
2026-03-27 07:51:40.816	-0.196133	-0.0686465499999988	9.8458766
2026-03-27 07:51:41.069	-0.196133	-0.0686465499999988	9.8458766
2026-03-27 07:51:41.315	-0.1569064	-0.1176797999999988	9.8262633
2026-03-27 07:51:41.570	-0.1569064	-0.1176797999999988	9.8262633
2026-03-27 07:51:41.813	-0.20593965	-0.0686465499999988	9.83606995
2026-03-27 07:51:42.069	-0.20593965	-0.0686465499999988	9.83606995
2026-03-27 07:51:42.313	-0.18632635	-0.0686465499999988	9.80665
2026-03-27 07:51:42.569	-0.18632635	-0.0686465499999988	9.80665
2026-03-27 07:51:42.818	-0.1176798	-0.1667130499999988	9.6889702
2026-03-27 07:51:43.069	-0.1176798	-0.1667130499999988	9.6889702
2026-03-27 07:51:43.313	-0.196133	-0.029419949999998786	9.9047165
2026-03-27 07:51:43.569	-0.196133	-0.029419949999998786	9.9047165
2026-03-27 07:51:43.813	-0.2157463	-0.1274864499999988	9.7281968
2026-03-27 07:51:44.070	-0.2157463	-0.1274864499999988	9.7281968
2026-03-27 07:51:44.316	-0.10787315	-0.0784531999999988	9.83606995
2026-03-27 07:51:44.570	-0.10787315	-0.0784531999999988	9.83606995
2026-03-27 07:51:44.816	-0.20593965	-0.0882598499999988	9.80665
2026-03-27 07:51:45.073	-0.20593965	-0.0882598499999988	9.80665
2026-03-27 07:51:45.317	-0.196133	-0.1078731499999988	9.7478101
2026-03-27 07:51:45.569	-0.196133	-0.1078731499999988	9.7478101
2026-03-27 07:51:45.815	-0.12748645	-0.0686465499999988	9.80665
2026-03-27 07:51:46.070	-0.12748645	-0.0686465499999988	9.80665
2026-03-27 07:51:46.314	-0.2353596	-0.1176797999999988	9.8458766
2026-03-27 07:51:46.569	-0.2353596	-0.1176797999999988	9.8458766
2026-03-27 07:51:46.816	-0.0784532	-0.1078731499999988	9.79684335
2026-03-27 07:51:47.069	-0.0784532	-0.1078731499999988	9.79684335
2026-03-27 07:51:47.320	-0.24516625	-0.1176797999999988	9.8458766
2026-03-27 07:51:47.570	-0.24516625	-0.1176797999999988	9.8458766
2026-03-27 07:51:47.815	-0.0980665	-0.1274864499999988	9.79684335
2026-03-27 07:51:48.070	-0.0980665	-0.1274864499999988	9.79684335
2026-03-27 07:51:48.313	-0.18632635	-0.1078731499999988	9.77723005
2026-03-27 07:51:48.570	-0.18632635	-0.1078731499999988	9.77723005
2026-03-27 07:51:48.813	-0.0784532	-0.1274864499999988	9.7478101
2026-03-27 07:51:49.070	-0.0784532	-0.1274864499999988	9.7478101
2026-03-27 07:51:49.314	-0.26477955	-0.0882598499999988	9.8851032
2026-03-27 07:51:49.574	-0.26477955	-0.0882598499999988	9.8851032
2026-03-27 07:51:49.819	-0.06864655	-0.029419949999998807	9.73800345
2026-03-27 07:51:50.069	-0.06864655	-0.029419949999998807	9.73800345
2026-03-27 07:51:50.315	-0.2549729	-0.1470997499999988	9.8654899
2026-03-27 07:51:50.570	-0.2549729	-0.1470997499999988	9.8654899
2026-03-27 07:51:50.813	-0.08825985	1.188958570752981e-15	9.7085835
2026-03-27 07:51:51.069	-0.08825985	1.188958570752981e-15	9.7085835
2026-03-27 07:51:51.314	-0.196133	-0.1470997499999988	9.85568325
2026-03-27 07:51:51.569	-0.196133	-0.1470997499999988	9.85568325
2026-03-27 07:51:51.822	-0.1372931	-0.1372930999999988	9.80665
2026-03-27 07:51:52.070	-0.1372931	-0.1372930999999988	9.80665
2026-03-27 07:51:52.314	-0.196133	-0.019613299999998803	9.77723005
2026-03-27 07:51:52.570	-0.196133	-0.019613299999998803	9.77723005
2026-03-27 07:51:52.819	-0.10787315	-0.1470997499999988	9.7870367
2026-03-27 07:51:53.070	-0.10787315	-0.1470997499999988	9.7870367
2026-03-27 07:51:53.313	-0.196133	-0.07845319999999881	9.75761675
2026-03-27 07:51:53.569	-0.196133	-0.07845319999999881	9.75761675
2026-03-27 07:51:53.813	-0.16671305	-0.0686465499999988	9.83606995
2026-03-27 07:51:54.073	-0.16671305	-0.0686465499999988	9.83606995
2026-03-27 07:51:54.318	-0.12748645	-0.1470997499999988	9.7870367
2026-03-27 07:51:54.570	-0.12748645	-0.1470997499999988	9.7870367
