[System]
Platform=SEANO USV
Start_Time=2026-05-02 12:14:04
Timezone=WIB

[Sensor]
Name=IMU

[Columns]
Timestamp(WIB)	AccX	AccY	AccZ

[Data]
2026-05-02 12:14:07.000	-2.24572285	-0.1667130499999988	9.5909037
2026-05-02 12:14:07.258	-2.2359162	-0.1667130499999988	9.58109705
2026-05-02 12:14:07.497	-2.2359162	-0.1667130499999988	9.58109705
2026-05-02 12:14:07.756	-2.2359162	-0.1667130499999988	9.5909037
2026-05-02 12:14:08.020	-2.2359162	-0.1667130499999988	9.58109705
2026-05-02 12:14:08.256	-2.24572285	-0.1667130499999988	9.58109705
2026-05-02 12:14:08.494	-2.2359162	-0.1667130499999988	9.5909037
2026-05-02 12:14:08.760	-2.2359162	-0.1667130499999988	9.5909037
2026-05-02 12:14:08.997	-2.2359162	-0.1667130499999988	9.58109705
2026-05-02 12:14:09.260	-2.2359162	-0.1667130499999988	9.5909037
2026-05-02 12:14:09.504	-2.2359162	-0.1667130499999988	9.5909037
2026-05-02 12:14:09.755	-2.2359162	-0.1667130499999988	9.5909037
2026-05-02 12:14:09.994	-2.24572285	-0.1667130499999988	9.5909037
2026-05-02 12:14:10.257	-2.24572285	-0.1667130499999988	9.5909037
2026-05-02 12:14:10.497	-2.2359162	-0.1667130499999988	9.5909037
2026-05-02 12:14:10.755	-2.2359162	-0.1667130499999988	9.58109705
2026-05-02 12:14:10.997	-2.2359162	-0.1765196999999988	9.58109705
2026-05-02 12:14:11.257	-2.24572285	-0.1667130499999988	9.5909037
2026-05-02 12:14:11.498	-2.2359162	-0.1667130499999988	9.58109705
2026-05-02 12:14:11.755	-2.2359162	-0.1667130499999988	9.5909037
2026-05-02 12:14:11.997	-2.24572285	-0.1667130499999988	9.5909037
2026-05-02 12:14:12.257	-2.24572285	-0.15690639999999884	9.5909037
2026-05-02 12:14:12.497	-2.2359162	-0.1667130499999988	9.5909037
2026-05-02 12:14:12.755	-2.2359162	-0.1863263499999988	9.5909037
2026-05-02 12:14:12.997	-2.2359162	-0.1667130499999988	9.5909037
2026-05-02 12:14:13.257	-2.2359162	-0.1863263499999988	9.5909037
2026-05-02 12:14:13.497	-2.24572285	-0.1667130499999988	9.58109705
2026-05-02 12:14:13.757	-2.2359162	-0.1863263499999988	9.5909037
2026-05-02 12:14:13.998	-2.24572285	-0.1765196999999988	9.5909037
2026-05-02 12:14:14.257	-2.2555295	-0.08825984999999884	9.5909037
2026-05-02 12:14:14.496	-2.4124359	0.07845320000000122	9.9243298
2026-05-02 12:14:14.756	-1.5298374	-0.2941994999999986	11.3168741
2026-05-02 12:14:14.994	-0.71588545	-0.1765196999999986	11.4541672
2026-05-02 12:14:15.257	-0.30400615	-1.2748644999999985	10.65982855
2026-05-02 12:14:15.497	-0.4511059	-1.4611908499999993	7.9433865
2026-05-02 12:14:15.755	-0.8433719	0.42168595000000114	9.3555441
2026-05-02 12:14:15.997	0.5491724	-0.04903324999999884	9.48303055
2026-05-02 12:14:16.258	0.8629852	1.000278300000001	7.7276402
2026-05-02 12:14:16.496	0.18632635	2.706635400000002	12.9055514
2026-05-02 12:14:16.754	0.3138128	2.255529500000001	8.87501825
2026-05-02 12:14:16.999	0.4707192	3.599040550000001	10.56176205
2026-05-02 12:14:17.264	0.30400615	4.824871800000001	10.58137535
2026-05-02 12:14:17.497	-0.77472535	6.276256000000001	9.424190649999998
2026-05-02 12:14:17.756	-0.392266	2.2457228500000013	8.09048625
2026-05-02 12:14:17.997	-1.5102241	3.5696206000000013	8.54159215
2026-05-02 12:14:18.257	0.71588545	3.6382671500000012	9.551677100000001
2026-05-02 12:14:18.497	0.10787315	3.6578804500000013	7.9041599
2026-05-02 12:14:18.755	0.22555295	4.432605800000001	9.1986377
2026-05-02 12:14:19.005	-0.8629852	3.265614450000001	9.18883105
2026-05-02 12:14:19.257	-0.0196133	5.197524500000001	9.286897549999999
2026-05-02 12:14:19.496	0.8825985000000001	7.531507200000001	12.48386545
2026-05-02 12:14:19.755	0.1569064	3.5205873500000013	7.0607880000000005
2026-05-02 12:14:19.998	-0.196133	3.9716932500000013	9.80665
2026-05-02 12:14:20.264	-0.4511059	2.6281822000000012	7.0019481
2026-05-02 12:14:20.496	1.30428445	5.021004800000001	10.6696352
2026-05-02 12:14:20.755	0.73549875	2.8929617500000004	6.05070305
2026-05-02 12:14:20.996	-0.46091255	3.8834334000000017	11.89546645
2026-05-02 12:14:21.260	-0.7256921000000001	3.4519408000000014	7.8060934
2026-05-02 12:14:21.498	0.36284605000000003	2.657602150000001	9.56148375
2026-05-02 12:14:21.756	-0.7060788	4.844485100000001	9.483030549999999
2026-05-02 12:14:22.009	-0.784532	3.1381280000000014	7.34518085
2026-05-02 12:14:22.257	0.4314926	6.413549100000001	11.7287534
2026-05-02 12:14:22.497	0.588399	2.167269650000001	6.0605097
2026-05-02 12:14:22.754	-0.59820565	3.9716932500000013	9.8458766
2026-05-02 12:14:22.996	-0.784532	2.7752819500000006	5.3740442
2026-05-02 12:14:23.258	1.08853815	7.0117547500000015	11.973919650000001
2026-05-02 12:14:23.497	0.6864655	3.4617474500000007	6.2958693
2026-05-02 12:14:23.757	-0.77472535	6.1585762000000015	10.91480145
2026-05-02 12:14:23.998	-1.12776475	3.0890947500000006	5.9232166
2026-05-02 12:14:24.256	0.1176798	4.010919850000001	10.0223963
2026-05-02 12:14:24.496	-0.55897905	2.0692031500000008	3.48136075
2026-05-02 12:14:24.755	-1.42196425	7.139241200000002	11.71894675
2026-05-02 12:14:24.994	-1.4709975	3.1675479500000012	7.2176944
2026-05-02 12:14:25.260	-1.20621795	5.717276950000001	10.3165958
2026-05-02 12:14:25.501	0.28439285000000003	2.657602150000001	7.32556755
2026-05-02 12:14:25.758	-0.83356525	6.305675950000001	9.198637699999999
2026-05-02 12:14:25.997	0.392266	1.3238977500000009	7.44324735
2026-05-02 12:14:26.257	-1.1964113	4.177632900000001	8.3748791
2026-05-02 12:14:26.501	-0.10787315	1.5984839500000012	10.18910935
2026-05-02 12:14:26.756	-0.73549875	1.1964113000000007	5.5309506
2026-05-02 12:14:26.996	-1.6279039	7.041174700000001	12.67999845
2026-05-02 12:14:27.257	-0.7256921000000001	2.1574630000000012	8.5710121
2026-05-02 12:14:27.500	-0.7649187	3.981499900000001	9.8654899
2026-05-02 12:14:27.757	1.01008495	2.8047019000000013	9.1397978
2026-05-02 12:14:27.996	-0.8237586	4.658158750000001	10.8657682
2026-05-02 12:14:28.257	-0.53936575	1.4415775500000012	9.2574776
2026-05-02 12:14:28.499	-0.784532	2.4418558500000014	10.40485565
2026-05-02 12:14:28.755	1.52003075	6.227222750000001	9.561483749999999
2026-05-02 12:14:29.003	0.3726527	4.756225250000001	8.767145099999999
2026-05-02 12:14:29.257	-0.2745862	3.5205873500000013	9.8851032
2026-05-02 12:14:29.498	0.69627215	0.7453054000000011	8.924051500000001
2026-05-02 12:14:29.756	1.2552512	0.16671305000000125	10.1204628
2026-05-02 12:14:29.994	1.18660465	0.8041453000000013	9.79684335
2026-05-02 12:14:30.257	1.73577705	1.6769371500000012	8.9436648
2026-05-02 12:14:30.496	0.79433865	1.627903900000001	10.01258965
2026-05-02 12:14:30.755	0.9022118	0.07845320000000118	9.67916355
2026-05-02 12:14:30.997	0.73549875	-0.8531785499999988	10.091042850000001
2026-05-02 12:14:31.260	1.75539035	-0.37265269999999884	9.44380395
2026-05-02 12:14:31.496	1.9221034000000001	0.38245935000000125	10.0223963
2026-05-02 12:14:31.754	2.02997655	0.14709975000000117	9.551677100000001
2026-05-02 12:14:31.997	2.75566865	-0.04903324999999886	9.32612415
2026-05-02 12:14:32.256	2.4124359	1.7357770500000012	9.1594111
2026-05-02 12:14:32.504	2.93218835	0.18632635000000122	9.8851032
2026-05-02 12:14:32.764	2.3928226	0.13729310000000122	10.0223963
2026-05-02 12:14:32.996	2.3143694	0.06864655000000117	9.56148375
2026-05-02 12:14:33.262	2.55953565	-0.5001391499999989	9.79684335
2026-05-02 12:14:33.496	2.4712758	-0.5393657499999989	9.5909037
2026-05-02 12:14:33.755	2.85373515	0.01961330000000119	9.69877685
2026-05-02 12:14:33.997	2.3732093	-0.6570455499999989	8.9828914
2026-05-02 12:14:34.257	2.01036325	-1.186604649999999	9.58109705
2026-05-02 12:14:34.496	2.55953565	0.058839900000001166	9.50264385
2026-05-02 12:14:34.758	2.28494945	-0.16671304999999892	8.8848249
2026-05-02 12:14:34.994	2.8047019	-0.07845319999999885	9.4339973
2026-05-02 12:14:35.258	2.2163029	-0.5099457999999988	9.610517
2026-05-02 12:14:35.496	1.36312435	-0.6668521999999989	9.5712904
2026-05-02 12:14:35.757	1.0002783	0.01961330000000125	10.20872265
2026-05-02 12:14:35.997	1.22583125	-0.06864654999999896	8.46313895
2026-05-02 12:14:36.257	-0.6864655	-0.009806649999998649	11.03248125
2026-05-02 12:14:36.496	-0.53936575	0.14709975000000117	9.5909037
2026-05-02 12:14:36.757	0.16671305	-0.45110589999999884	9.58109705
2026-05-02 12:14:36.997	0.1176798	-0.04903324999999875	10.1400761
2026-05-02 12:14:37.264	-0.2941995	0.019613300000001128	9.20844435
2026-05-02 12:14:37.496	-0.5295591	-0.23535959999999873	10.6107953
2026-05-02 12:14:37.754	0.14709975	-0.19613299999999886	9.38496405
2026-05-02 12:14:37.998	0.0	0.04903325000000119	9.67916355
2026-05-02 12:14:38.256	-0.6472389000000001	-0.029419949999998706	10.5519554
2026-05-02 12:14:38.496	-0.0392266	-0.40207264999999887	9.2378643
2026-05-02 12:14:38.756	0.16671305	-0.0980664999999988	9.8654899
2026-05-02 12:14:38.997	-0.36284605000000003	0.16671305000000125	10.11065615
2026-05-02 12:14:39.258	-0.3334261	-0.3628460499999988	9.5909037
2026-05-02 12:14:39.498	0.0588399	-0.21574629999999878	10.01258965
2026-05-02 12:14:39.757	-0.00980665	0.10787315000000121	9.7478101
2026-05-02 12:14:39.994	-0.36284605000000003	-0.1961329999999988	9.7870367
2026-05-02 12:14:40.258	-0.28439285000000003	-0.26477954999999875	10.16949605
2026-05-02 12:14:40.496	0.1176798	-0.019613299999998838	9.48303055
2026-05-02 12:14:40.754	-0.12748645	0.009806650000001214	9.91452315
2026-05-02 12:14:40.996	-0.40207265000000003	-0.32361944999999875	10.03220295
2026-05-02 12:14:41.256	-0.1569064	-0.10787314999999882	9.6889702
2026-05-02 12:14:41.496	0.16671305	1.1985663167792674e-15	9.7870367
2026-05-02 12:14:41.756	-0.24516625	-0.1470997499999988	9.87529655
2026-05-02 12:14:41.997	-0.48052585000000003	-0.2647795499999988	9.95374975
2026-05-02 12:14:42.257	0.06864655	-0.0686465499999988	9.79684335
2026-05-02 12:14:42.496	0.0588399	0.029419950000001194	9.75761675
2026-05-02 12:14:42.755	-0.42168595	-0.20593964999999878	9.85568325
2026-05-02 12:14:42.996	-0.2353596	-0.2843928499999988	9.97336305
2026-05-02 12:14:43.256	0.0392266	0.11767980000000121	9.7674234
2026-05-02 12:14:43.496	-0.12748645	-0.1372930999999988	9.7281968
2026-05-02 12:14:43.755	-0.28439285000000003	-0.36284604999999875	9.9635564
2026-05-02 12:14:43.997	-0.12748645	0.11767980000000121	9.8851032
2026-05-02 12:14:44.259	-0.04903325	-0.1372930999999988	9.75761675
2026-05-02 12:14:44.496	-0.20593965	-0.3138127999999988	9.83606995
2026-05-02 12:14:44.755	-0.196133	0.05883990000000121	9.87529655
2026-05-02 12:14:44.994	-0.0784532	-0.0686465499999988	9.89490985
2026-05-02 12:14:45.256	-0.1765197	-0.37265269999999884	9.80665
2026-05-02 12:14:45.496	-0.1569064	1.1961643802726959e-15	9.7674234
2026-05-02 12:14:45.755	-0.1372931	0.08825985000000122	9.9243298
2026-05-02 12:14:45.997	-0.16671305	-0.37265269999999884	9.8458766
2026-05-02 12:14:46.257	-0.18632635	-0.1176797999999988	9.7870367
2026-05-02 12:14:46.498	-0.0980665	0.0588399000000012	9.8262633
2026-05-02 12:14:46.755	-0.12748645	-0.20593964999999878	9.8262633
2026-05-02 12:14:46.997	-0.22555295	-0.17651969999999878	9.93413645
2026-05-02 12:14:47.257	-0.196133	-0.0490332499999988	9.83606995
2026-05-02 12:14:47.496	0.0	-0.08825984999999882	9.7281968
2026-05-02 12:14:47.756	-0.18632635	-0.15690639999999878	9.91452315
2026-05-02 12:14:48.007	-0.2941995	-0.12748644999999878	9.93413645
2026-05-02 12:14:48.258	-0.04903325	-0.11767979999999882	9.65955025
2026-05-02 12:14:48.496	-0.12748645	-0.08825984999999878	9.9439431
2026-05-02 12:14:48.755	-0.2745862	-0.0686465499999988	9.8851032
2026-05-02 12:14:48.997	-0.08825985	-0.2157462999999988	9.75761675
2026-05-02 12:14:49.257	-0.0784532	-0.05883989999999879	9.8851032
2026-05-02 12:14:49.497	-0.22555295	-0.0784531999999988	9.80665
2026-05-02 12:14:49.756	-0.20593965	-0.18632634999999878	9.9243298
2026-05-02 12:14:49.994	-0.08825985	-0.08825984999999882	9.7281968
2026-05-02 12:14:50.257	-0.10787315	-0.0882598499999988	9.8851032
2026-05-02 12:14:50.496	-0.196133	-0.14709974999999878	9.89490985
2026-05-02 12:14:50.755	-0.22555295	-0.0882598499999988	9.7674234
2026-05-02 12:14:50.998	-0.10787315	-0.1470997499999988	9.8851032
2026-05-02 12:14:51.257	-0.0980665	-0.1470997499999988	9.83606995
2026-05-02 12:14:51.496	-0.2353596	0.009806650000001206	9.85568325
2026-05-02 12:14:51.756	-0.0980665	-0.1863263499999988	9.80665
2026-05-02 12:14:51.997	-0.14709975	-0.2843928499999988	9.85568325
2026-05-02 12:14:52.257	-0.2549729	0.14709975000000122	9.91452315
2026-05-02 12:14:52.496	-0.0784532	-0.1274864499999988	9.75761675
2026-05-02 12:14:52.755	-0.0980665	-0.41187929999999884	9.7870367
2026-05-02 12:14:52.995	-0.20593965	0.11767980000000122	10.01258965
2026-05-02 12:14:53.257	-0.16671305	1.1829537294865517e-15	9.65955025
2026-05-02 12:14:53.501	-0.1569064	-0.4216859499999988	9.9047165
2026-05-02 12:14:53.765	-0.1372931	0.029419950000001218	9.95374975
2026-05-02 12:14:54.006	-0.08825985	1.1865566342464092e-15	9.6889702
2026-05-02 12:14:54.257	-0.2353596	-0.3236194499999988	9.9047165
2026-05-02 12:14:54.496	-0.1765197	-0.10787314999999878	9.89490985
2026-05-02 12:14:54.756	-0.0588399	0.039226600000001194	9.7478101
2026-05-02 12:14:54.994	-0.20593965	-0.18632634999999878	9.9243298
2026-05-02 12:14:55.258	-0.16671305	-0.1765196999999988	9.71839015
2026-05-02 12:14:55.496	-0.12748645	-0.07845319999999878	9.97336305
2026-05-02 12:14:55.755	-0.20593965	-0.04903324999999879	9.87529655
2026-05-02 12:14:55.997	-0.1372931	-0.1667130499999988	9.6693569
2026-05-02 12:14:56.261	-0.0980665	-0.14709974999999878	10.01258965
2026-05-02 12:14:56.496	-0.1765197	-0.0490332499999988	9.7870367
2026-05-02 12:14:56.757	-0.2549729	-0.0980664999999988	9.87529655
2026-05-02 12:14:56.996	-0.0588399	-0.2255529499999988	9.7870367
2026-05-02 12:14:57.257	-0.08825985	-0.019613299999998796	9.83606995
2026-05-02 12:14:57.496	-0.28439285000000003	-0.029419949999998782	9.9439431
2026-05-02 12:14:57.756	-0.14709975	-0.3432327499999988	9.7478101
2026-05-02 12:14:57.998	-0.0588399	-0.0098066499999988	9.79684335
2026-05-02 12:14:58.258	-0.18632635	0.03922660000000121	9.91452315
2026-05-02 12:14:58.497	-0.2353596	-0.3040061499999988	9.9047165
2026-05-02 12:14:58.757	-0.0196133	-0.1569063999999988	9.6693569
2026-05-02 12:14:58.996	-0.18632635	0.06864655000000122	9.93413645
2026-05-02 12:14:59.257	-0.26477955	-0.24516624999999878	9.89490985
2026-05-02 12:14:59.497	-0.0588399	-0.0980664999999988	9.80665
2026-05-02 12:14:59.755	-0.06864655	-0.06864654999999881	9.77723005
2026-05-02 12:14:59.996	-0.24516625	-0.14709974999999878	9.9047165
2026-05-02 12:15:00.257	-0.22555295	-0.0882598499999988	9.8851032
2026-05-02 12:15:00.495	-0.06864655	-0.1765196999999988	9.79684335
2026-05-02 12:15:00.760	-0.06864655	-0.0882598499999988	9.77723005
2026-05-02 12:15:00.996	-0.26477955	-0.019613299999998786	9.91452315
2026-05-02 12:15:01.257	-0.2353596	-0.3236194499999988	9.89490985
2026-05-02 12:15:01.496	-0.00980665	1.1937624437661242e-15	9.7478101
2026-05-02 12:15:01.755	-0.1372931	0.019613300000001197	9.79684335
2026-05-02 12:15:01.997	-0.32361945000000003	-0.38245934999999875	9.99297635
2026-05-02 12:15:02.257	-0.0784532	-0.0392265999999988	9.7870367
2026-05-02 12:15:02.496	-0.0392266	0.049033250000001194	9.71839015
2026-05-02 12:15:02.755	-0.3138128	-0.3334260999999987	10.01258965
2026-05-02 12:15:02.997	-0.20593965	-0.0686465499999988	9.85568325
2026-05-02 12:15:03.262	0.0196133	-0.039226599999998814	9.6693569
2026-05-02 12:15:03.497	-0.20593965	-0.15690639999999878	9.89490985
2026-05-02 12:15:03.756	-0.22555295	-0.11767979999999878	9.93413645
2026-05-02 12:15:03.996	-0.16671305	-0.1176797999999988	9.7870367
2026-05-02 12:15:04.257	-0.1176798	-0.1470997499999988	9.8654899
2026-05-02 12:15:04.496	-0.04903325	-0.05883989999999881	9.73800345
2026-05-02 12:15:04.756	-0.22555295	-0.12748644999999878	9.9047165
2026-05-02 12:15:04.993	-0.3138128	-0.14709974999999878	10.002783
2026-05-02 12:15:05.256	-0.00980665	-0.10787314999999882	9.610517
2026-05-02 12:15:05.496	0.0	-0.1176797999999988	9.83606995
2026-05-02 12:15:05.756	-0.392266	-0.04903324999999877	10.03220295
2026-05-02 12:15:05.997	-0.24516625	-0.20593964999999878	9.8458766
2026-05-02 12:15:06.257	0.16671305	-0.08825984999999882	9.6301303
2026-05-02 12:15:06.497	-0.18632635	-0.0686465499999988	9.8654899
2026-05-02 12:15:06.756	-0.5295591	-0.18632634999999878	10.07142955
2026-05-02 12:15:06.997	-0.0196133	-0.0980664999999988	9.77723005
2026-05-02 12:15:07.257	0.20593965	-0.049033249999998835	9.5124505
2026-05-02 12:15:07.497	-0.392266	-0.15690639999999875	10.07142955
2026-05-02 12:15:07.755	-0.5295591	-0.17651969999999878	10.091042850000001
2026-05-02 12:15:07.995	0.1569064	-0.08825984999999884	9.4928372
2026-05-02 12:15:08.257	0.10787315	1.19496341201941e-15	9.75761675
2026-05-02 12:15:08.496	-0.51975245	-0.24516624999999878	10.091042850000001
2026-05-02 12:15:08.760	-0.30400615	-0.20593964999999878	9.87529655
2026-05-02 12:15:08.997	0.1372931	0.07845320000000118	9.639936950000001
2026-05-02 12:15:09.265	-0.0980665	-0.1961329999999988	9.80665
2026-05-02 12:15:09.496	-0.392266	-0.24516624999999878	10.05181625
2026-05-02 12:15:09.756	-0.1569064	0.09806650000000121	9.83606995
2026-05-02 12:15:09.994	0.00980665	-0.2157462999999988	9.65955025
2026-05-02 12:15:10.258	-0.1765197	-0.21574629999999878	9.9243298
2026-05-02 12:15:10.497	-0.28439285000000003	0.06864655000000121	9.9047165
2026-05-02 12:15:10.754	-0.12748645	-0.1961329999999988	9.80665
2026-05-02 12:15:10.997	-0.0392266	-0.1765196999999988	9.79684335
2026-05-02 12:15:11.259	-0.196133	0.0294199500000012	9.81645665
2026-05-02 12:15:11.499	-0.2549729	-0.22555294999999878	9.9439431
2026-05-02 12:15:11.755	-0.10787315	-0.1274864499999988	9.8458766
2026-05-02 12:15:11.997	-0.0392266	-0.039226599999998814	9.71839015
2026-05-02 12:15:12.256	-0.2549729	-0.22555294999999878	9.8851032
2026-05-02 12:15:12.497	-0.2353596	-0.05883989999999877	9.99297635
2026-05-02 12:15:12.756	-0.0588399	-0.07845319999999882	9.67916355
2026-05-02 12:15:12.997	-0.10787315	-0.16671304999999878	9.8654899
2026-05-02 12:15:13.257	-0.2157463	-0.11767979999999878	9.91452315
2026-05-02 12:15:13.497	-0.22555295	-0.0882598499999988	9.8654899
2026-05-02 12:15:13.768	-0.04903325	-0.1078731499999988	9.7870367
2026-05-02 12:15:13.997	-0.14709975	-0.1274864499999988	9.79684335
2026-05-02 12:15:14.257	-0.2549729	-0.11767979999999878	9.99297635
2026-05-02 12:15:14.501	-0.1176798	-0.0980664999999988	9.75761675
2026-05-02 12:15:14.756	-0.0980665	-0.1765196999999988	9.80665
2026-05-02 12:15:14.995	-0.196133	-0.019613299999998793	9.8654899
2026-05-02 12:15:15.258	-0.1569064	-0.17651969999999878	9.8851032
2026-05-02 12:15:15.496	-0.18632635	-0.1863263499999988	9.80665
2026-05-02 12:15:15.757	-0.1176798	0.06864655000000121	9.87529655
2026-05-02 12:15:15.997	-0.04903325	-0.2059396499999988	9.77723005
2026-05-02 12:15:16.257	-0.24516625	-0.3040061499999988	9.7870367
2026-05-02 12:15:16.497	-0.26477955	0.12748645000000122	10.002783
2026-05-02 12:15:16.756	0.4314926	-0.05883989999999878	9.9439431
2026-05-02 12:15:16.998	0.53936575	-0.37265269999999884	9.610517
2026-05-02 12:15:17.257	0.1372931	0.07845320000000124	10.03220295
2026-05-02 12:15:17.496	0.04903325	-0.0490332499999988	9.8458766
2026-05-02 12:15:17.756	0.1372931	-0.3628460499999988	9.7870367
2026-05-02 12:15:17.997	-0.2745862	-0.01961329999999879	9.8851032
2026-05-02 12:15:18.257	-0.4707192	-0.04903324999999879	9.8851032
2026-05-02 12:15:18.497	-0.34323275	-0.21574629999999878	9.85568325
2026-05-02 12:15:18.755	-0.2941995	-0.2647795499999988	9.80665
2026-05-02 12:15:18.997	-0.2745862	-0.2353595999999988	9.80665
2026-05-02 12:15:19.257	-0.3334261	-0.019613299999998782	9.9439431
2026-05-02 12:15:19.504	-0.2157463	-0.009806649999998808	9.7281968
2026-05-02 12:15:19.756	-0.18632635	0.01961330000000121	9.89490985
2026-05-02 12:15:19.995	-0.0980665	-0.1863263499999988	9.79684335
2026-05-02 12:15:20.257	-0.1569064	-0.35303939999999884	9.85568325
2026-05-02 12:15:20.497	-0.1569064	0.15690640000000122	9.93413645
2026-05-02 12:15:20.759	-0.1372931	0.07845320000000117	9.60071035
2026-05-02 12:15:20.998	-0.196133	-0.16671304999999878	10.03220295
2026-05-02 12:15:21.259	-0.2745862	0.10787315000000121	9.8262633
2026-05-02 12:15:21.497	-0.0392266	0.1470997500000012	9.77723005
2026-05-02 12:15:21.756	-0.1765197	-0.16671304999999878	9.91452315
2026-05-02 12:15:22.004	-0.3334261	-0.16671304999999878	9.83606995
2026-05-02 12:15:22.266	-0.2157463	-0.1274864499999988	9.83606995
2026-05-02 12:15:22.498	-0.08825985	-0.1863263499999988	9.75761675
2026-05-02 12:15:22.757	-0.0392266	-0.15690639999999878	9.97336305
2026-05-02 12:15:22.998	0.24516625	-0.0980664999999988	9.75761675
2026-05-02 12:15:23.257	0.36284605000000003	-0.1372930999999988	9.75761675
2026-05-02 12:15:23.497	0.1569064	-0.1470997499999988	9.83606995
2026-05-02 12:15:23.756	0.0588399	-0.0784531999999988	9.83606995
2026-05-02 12:15:23.998	0.02941995	-0.12748644999999878	9.9635564
2026-05-02 12:15:24.258	-0.14709975	-0.1863263499999988	9.67916355
2026-05-02 12:15:24.497	-0.36284605000000003	-0.17651969999999878	9.85568325
2026-05-02 12:15:24.756	-0.48052585000000003	0.009806650000001221	9.97336305
2026-05-02 12:15:24.995	-0.24516625	-0.1667130499999988	9.77723005
2026-05-02 12:15:25.258	-0.08825985	-0.1765196999999988	9.73800345
2026-05-02 12:15:25.496	-0.3726527	-0.14709974999999878	9.9635564
2026-05-02 12:15:25.757	-0.36284605000000003	-0.4020726499999988	9.9047165
2026-05-02 12:15:25.998	-0.1176798	-0.2647795499999988	9.639936950000001
2026-05-02 12:15:26.257	-0.3138128	0.07845320000000122	10.002783
2026-05-02 12:15:26.498	-0.12748645	-0.1470997499999988	9.7674234
2026-05-02 12:15:26.756	-0.0784532	-0.25497289999999884	9.75761675
2026-05-02 12:15:26.998	-0.3334261	0.04903325000000123	10.0616229
2026-05-02 12:15:27.257	-0.1765197	-0.08825984999999882	9.6497436
2026-05-02 12:15:27.498	-0.0588399	-0.2647795499999988	9.8851032
2026-05-02 12:15:27.756	-0.18632635	-0.009806649999998793	9.85568325
2026-05-02 12:15:27.996	-0.28439285000000003	-0.019613299999998793	9.85568325
2026-05-02 12:15:28.257	-0.1176798	-0.21574629999999878	9.93413645
2026-05-02 12:15:28.496	-0.02941995	-0.1470997499999988	9.65955025
2026-05-02 12:15:28.756	-0.26477955	1.2177818088318409e-15	9.9439431
2026-05-02 12:15:28.997	-0.28439285000000003	-0.02941994999999879	9.8851032
2026-05-02 12:15:29.258	0.0	-0.25497289999999884	9.7085835
2026-05-02 12:15:29.496	-0.02941995	-0.1470997499999988	9.8654899
2026-05-02 12:15:29.755	-0.36284605000000003	0.08825985000000122	9.91452315
2026-05-02 12:15:29.997	-0.26477955	-0.21574629999999878	9.8654899
2026-05-02 12:15:30.258	0.16671305	-0.2059396499999988	9.65955025
2026-05-02 12:15:30.496	-0.16671305	-0.009806649999998788	9.9047165
2026-05-02 12:15:30.767	-0.4903325	-0.049033249999998765	10.07142955
2026-05-02 12:15:30.996	-0.04903325	-0.2255529499999988	9.639936950000001
2026-05-02 12:15:31.257	0.16671305	-0.06864654999999881	9.7478101
2026-05-02 12:15:31.496	-0.3530394	-0.07845319999999878	9.97336305
2026-05-02 12:15:31.756	-0.48052585000000003	-0.11767979999999878	9.9635564
2026-05-02 12:15:31.998	0.18632635	-0.1470997499999988	9.639936950000001
2026-05-02 12:15:32.257	0.0588399	-0.10787314999999882	9.7281968
2026-05-02 12:15:32.496	-0.63743225	-0.07845319999999877	10.1008495
2026-05-02 12:15:32.756	-0.20593965	-0.14709974999999878	9.89490985
2026-05-02 12:15:32.997	0.34323275	-0.09806649999999884	9.4928372
2026-05-02 12:15:33.258	-0.3726527	-0.11767979999999878	10.002783
2026-05-02 12:15:33.497	-0.5295591	-0.08825984999999877	10.0616229
2026-05-02 12:15:33.756	0.16671305	-0.13729309999999884	9.5712904
2026-05-02 12:15:33.997	0.04903325	-0.0686465499999988	9.7870367
2026-05-02 12:15:34.257	-0.51975245	-0.13729309999999875	10.0420096
2026-05-02 12:15:34.497	-0.2549729	-0.1569063999999988	9.87529655
2026-05-02 12:15:34.756	0.196133	-0.009806649999998822	9.62032365
2026-05-02 12:15:34.997	-0.1176798	-0.1470997499999988	9.8851032
2026-05-02 12:15:35.257	-0.5295591	-0.16671304999999878	10.0420096
2026-05-02 12:15:35.496	-0.10787315	-0.0882598499999988	9.7674234
2026-05-02 12:15:35.762	0.22555295	-0.06864654999999882	9.6301303
2026-05-02 12:15:35.997	-0.28439285000000003	-0.13729309999999878	9.9831697
2026-05-02 12:15:36.258	-0.51975245	-0.16671304999999878	10.0223963
2026-05-02 12:15:36.497	0.0392266	-0.06864654999999882	9.639936950000001
2026-05-02 12:15:36.756	0.1765197	-0.09806649999999882	9.6693569
2026-05-02 12:15:36.997	-0.4511059	-0.08825984999999877	10.091042850000001
2026-05-02 12:15:37.257	-0.40207265000000003	-0.21574629999999878	9.8458766
2026-05-02 12:15:37.496	0.18632635	-0.02941994999999881	9.71839015
2026-05-02 12:15:37.755	-0.00980665	-0.0490332499999988	9.79684335
2026-05-02 12:15:37.997	-0.50013915	-0.23535959999999878	9.9831697
2026-05-02 12:15:38.257	-0.196133	-0.0980664999999988	9.85568325
2026-05-02 12:15:38.497	0.18632635	-0.019613299999998817	9.6693569
2026-05-02 12:15:38.757	-0.18632635	-0.22555294999999878	9.91452315
2026-05-02 12:15:38.997	-0.4707192	-0.08825984999999878	9.9635564
2026-05-02 12:15:39.258	-0.02941995	-0.09806649999999882	9.73800345
2026-05-02 12:15:39.498	0.1372931	-0.1078731499999988	9.75761675
2026-05-02 12:15:39.756	-0.32361945000000003	-0.11767979999999878	9.9243298
2026-05-02 12:15:39.996	-0.4314926	-0.12748644999999878	9.9439431
2026-05-02 12:15:40.258	0.04903325	-0.07845319999999881	9.73800345
2026-05-02 12:15:40.496	0.08825985	-0.1274864499999988	9.69877685
2026-05-02 12:15:40.755	-0.44129925000000003	-0.09806649999999877	10.07142955
2026-05-02 12:15:40.997	-0.34323275	-0.1078731499999988	9.8654899
2026-05-02 12:15:41.257	0.22555295	-0.2157462999999988	9.60071035
2026-05-02 12:15:41.496	-0.12748645	0.029419950000001218	9.95374975
2026-05-02 12:15:41.756	-0.53936575	-0.10787314999999878	9.97336305
2026-05-02 12:15:41.997	-0.00980665	-0.3432327499999988	9.71839015
2026-05-02 12:15:42.259	0.1372931	0.1372931000000012	9.7870367
2026-05-02 12:15:42.498	-0.36284605000000003	-0.1470997499999988	9.8654899
2026-05-02 12:15:42.755	-0.3530394	-0.34323274999999875	10.0420096
2026-05-02 12:15:42.997	0.0784532	0.04903325000000117	9.610517
2026-05-02 12:15:43.258	-0.04903325	-0.0392265999999988	9.7674234
2026-05-02 12:15:43.498	-0.3334261	-0.2745861999999988	10.0616229
2026-05-02 12:15:43.755	-0.22555295	-0.1078731499999988	9.75761675
2026-05-02 12:15:43.998	-0.00980665	0.00980665000000121	9.8654899
2026-05-02 12:15:44.256	-0.0784532	-0.1765196999999988	9.7870367
2026-05-02 12:15:44.504	-0.24516625	-0.16671304999999878	9.8262633
2026-05-02 12:15:44.755	-0.2549729	-0.12748644999999878	9.9831697
2026-05-02 12:15:44.995	-0.0392266	-0.0196132999999988	9.79684335
2026-05-02 12:15:45.258	-0.0392266	-0.1274864499999988	9.69877685
2026-05-02 12:15:45.497	-0.26477955	-0.22555294999999878	9.9831697
2026-05-02 12:15:45.760	-0.28439285000000003	-0.0686465499999988	9.85568325
2026-05-02 12:15:45.996	-0.0196133	1.1985663167792674e-15	9.7870367
2026-05-02 12:15:46.256	-0.00980665	-0.22555294999999878	9.81645665
2026-05-02 12:15:46.496	-0.3334261	-0.1372930999999988	9.87529655
2026-05-02 12:15:46.756	-0.30400615	1.2213847135916984e-15	9.97336305
2026-05-02 12:15:46.996	0.06864655	-0.1372930999999988	9.71839015
2026-05-02 12:15:47.257	-0.00980665	-0.1569063999999988	9.7085835
2026-05-02 12:15:47.497	-0.46091255	-0.13729309999999875	10.091042850000001
2026-05-02 12:15:47.757	-0.28439285000000003	0.009806650000001214	9.91452315
2026-05-02 12:15:47.996	0.2745862	-0.15690639999999884	9.4732239
2026-05-02 12:15:48.256	-0.196133	-0.2843928499999988	9.9635564
2026-05-02 12:15:48.496	-0.6080123	0.058839900000001236	10.091042850000001
2026-05-02 12:15:48.757	0.0196133	1.1817527612332657e-15	9.6497436
2026-05-02 12:15:48.997	0.18632635	-0.37265269999999884	9.67916355
2026-05-02 12:15:49.257	-0.4707192	-0.05883989999999877	10.0223963
2026-05-02 12:15:49.497	-0.3334261	0.12748645000000122	9.91452315
2026-05-02 12:15:49.756	0.18632635	-0.3040061499999988	9.69877685
2026-05-02 12:15:49.997	-0.1176798	-0.2255529499999988	9.77723005
2026-05-02 12:15:50.256	-0.48052585000000003	0.08825985000000122	9.9831697
2026-05-02 12:15:50.498	-0.0980665	-0.0686465499999988	9.85568325
2026-05-02 12:15:50.758	0.1569064	-0.3432327499999988	9.5909037
2026-05-02 12:15:50.997	-0.3726527	-0.019613299999998765	10.0812362
2026-05-02 12:15:51.258	-0.4314926	0.06864655000000121	9.8654899
2026-05-02 12:15:51.496	0.12748645	-0.29419949999999884	9.67916355
2026-05-02 12:15:51.755	0.0392266	-0.20593964999999878	9.89490985
2026-05-02 12:15:51.997	-0.4903325	0.11767980000000122	9.91452315
2026-05-02 12:15:52.257	-0.2549729	-0.18632634999999878	9.8654899
2026-05-02 12:15:52.497	0.1569064	-0.2647795499999988	9.6889702
2026-05-02 12:15:52.754	-0.18632635	0.05883990000000122	9.93413645
2026-05-02 12:15:52.997	-0.4118793	-0.10787314999999878	9.89490985
2026-05-02 12:15:53.256	-0.02941995	-0.27458619999999884	9.7478101
2026-05-02 12:15:53.496	0.0	-0.019613299999998796	9.8262633
2026-05-02 12:15:53.755	-0.3334261	1.2165808405785551e-15	9.93413645
2026-05-02 12:15:53.996	-0.196133	-0.27458619999999884	9.7870367
2026-05-02 12:15:54.257	0.0196133	-0.16671304999999878	9.81645665
2026-05-02 12:15:54.497	-0.22555295	0.07845320000000122	9.89490985
2026-05-02 12:15:54.762	-0.28439285000000003	-0.18632634999999878	9.8458766
2026-05-02 12:15:54.995	-0.06864655	-0.2647795499999988	9.80665
2026-05-02 12:15:55.257	-0.06864655	-0.019613299999998793	9.8458766
2026-05-02 12:15:55.496	-0.22555295	0.009806650000001211	9.8851032
2026-05-02 12:15:55.756	-0.22555295	-0.3040061499999988	9.7870367
2026-05-02 12:15:55.996	-0.1176798	-0.18632634999999878	9.9047165
2026-05-02 12:15:56.257	-0.06864655	0.1569064000000012	9.7870367
2026-05-02 12:15:56.496	-0.22555295	-0.2647795499999988	9.83606995
2026-05-02 12:15:56.757	-0.20593965	-0.32361944999999875	9.9635564
2026-05-02 12:15:56.997	-0.0784532	0.11767980000000118	9.7085835
2026-05-02 12:15:57.257	-0.18632635	-0.0784531999999988	9.87529655
2026-05-02 12:15:57.496	-0.1765197	-0.3432327499999988	9.8458766
2026-05-02 12:15:57.755	-0.0784532	-0.029419949999998793	9.8458766
2026-05-02 12:15:58.007	-0.20593965	-0.009806649999998786	9.91452315
2026-05-02 12:15:58.257	-0.196133	-0.2157462999999988	9.6497436
2026-05-02 12:15:58.497	-0.0980665	-0.17651969999999878	10.002783
2026-05-02 12:15:58.756	-0.10787315	1.2093750310588401e-15	9.87529655
2026-05-02 12:15:58.998	-0.2157463	-0.1372930999999988	9.7281968
2026-05-02 12:15:59.257	-0.1765197	-0.2549728999999988	9.95374975
2026-05-02 12:15:59.498	-0.06864655	0.019613300000001194	9.75761675
2026-05-02 12:15:59.754	-0.18632635	-0.0784531999999988	9.8654899
2026-05-02 12:15:59.995	-0.18632635	-0.3138127999999988	9.85568325
2026-05-02 12:16:00.257	-0.0980665	-0.009806649999998803	9.7674234
2026-05-02 12:16:00.496	-0.14709975	-0.019613299999998782	9.93413645
2026-05-02 12:16:00.757	-0.2157463	-0.25497289999999884	9.77723005
2026-05-02 12:16:00.997	-0.16671305	-0.16671304999999878	9.8654899
2026-05-02 12:16:01.257	-0.0784532	0.06864655000000121	9.8262633
2026-05-02 12:16:01.496	-0.16671305	-0.19613299999999878	9.85568325
2026-05-02 12:16:01.755	-0.22555295	-0.23535959999999878	9.9243298
2026-05-02 12:16:01.996	-0.1176798	1.19496341201941e-15	9.75761675
2026-05-02 12:16:02.257	-0.1176798	-0.0490332499999988	9.8262633
2026-05-02 12:16:02.496	-0.18632635	-0.24516624999999878	9.87529655
2026-05-02 12:16:02.756	-0.12748645	-0.1274864499999988	9.8654899
2026-05-02 12:16:02.998	-0.18632635	0.0098066500000012	9.79684335
2026-05-02 12:16:03.257	-0.14709975	-0.1863263499999988	9.77723005
2026-05-02 12:16:03.499	-0.1372931	-0.22555294999999878	9.97336305
2026-05-02 12:16:03.755	-0.1569064	0.0588399000000012	9.7870367
2026-05-02 12:16:03.998	-0.196133	-0.1765196999999988	9.7674234
2026-05-02 12:16:04.257	-0.1176798	-0.21574629999999878	9.95374975
2026-05-02 12:16:04.497	-0.1372931	-0.0392265999999988	9.79684335
2026-05-02 12:16:04.756	-0.2157463	-0.0392265999999988	9.8262633
2026-05-02 12:16:04.995	-0.1176798	-0.2745861999999988	9.8851032
2026-05-02 12:16:05.257	-0.12748645	1.19496341201941e-15	9.75761675
2026-05-02 12:16:05.497	-0.16671305	-0.10787314999999878	9.97336305
2026-05-02 12:16:05.825	-0.16671305	-0.29419949999999884	9.7870367
2026-05-02 12:16:05.998	-0.1765197	0.05883990000000121	9.87529655
2026-05-02 12:16:06.257	-0.18632635	-0.01961329999999877	10.05181625
2026-05-02 12:16:06.495	-0.0588399	-0.31381279999999884	9.6693569
2026-05-02 12:16:06.760	-0.18632635	-0.1372930999999988	9.87529655
2026-05-02 12:16:06.998	-0.2353596	0.15690640000000122	9.8654899
2026-05-02 12:16:07.258	-0.0784532	-0.3040061499999988	9.8262633
2026-05-02 12:16:07.505	-0.12748645	-0.24516624999999878	9.8654899
2026-05-02 12:16:07.756	-0.18632635	0.1372931000000012	9.7870367
2026-05-02 12:16:07.997	-0.16671305	-0.16671304999999878	9.83606995
2026-05-02 12:16:08.256	-0.14709975	-0.3040061499999988	9.93413645
2026-05-02 12:16:08.497	-0.16671305	0.07845320000000121	9.79684335
2026-05-02 12:16:08.756	-0.12748645	-0.1569063999999988	9.80665
2026-05-02 12:16:08.998	-0.12748645	-0.18632634999999878	9.81645665
2026-05-02 12:16:09.258	-0.24516625	-0.0686465499999988	9.8851032
2026-05-02 12:16:09.497	-0.14709975	-0.04903324999999879	9.91452315
2026-05-02 12:16:09.755	-0.0196133	-0.1961329999999988	9.610517
2026-05-02 12:16:09.995	-0.2353596	-0.12748644999999878	10.0223963
2026-05-02 12:16:10.257	-0.2941995	-0.029419949999998786	9.91452315
2026-05-02 12:16:10.496	0.0	-0.1274864499999988	9.6693569
2026-05-02 12:16:10.755	-0.0784532	-0.15690639999999878	9.89490985
2026-05-02 12:16:10.997	-0.3334261	-0.0686465499999988	9.8654899
2026-05-02 12:16:11.257	-0.14709975	-0.14709974999999878	9.9243298
2026-05-02 12:16:11.496	-0.00980665	-0.10787314999999882	9.7085835
2026-05-02 12:16:11.756	-0.196133	1.2045711580456967e-15	9.83606995
2026-05-02 12:16:11.996	-0.2941995	-0.2843928499999988	9.95374975
2026-05-02 12:16:12.256	-0.06864655	-0.1372930999999988	9.7870367
2026-05-02 12:16:12.498	-0.06864655	0.07845320000000121	9.75761675
2026-05-02 12:16:12.755	-0.22555295	-0.15690639999999878	9.9831697
2026-05-02 12:16:12.997	-0.2157463	-0.3236194499999988	9.77723005
2026-05-02 12:16:13.256	-0.0784532	0.0294199500000012	9.81645665
2026-05-02 12:16:13.496	-0.1372931	0.08825985000000122	9.9047165
2026-05-02 12:16:13.755	-0.18632635	-0.4412992499999988	9.71839015
2026-05-02 12:16:13.997	-0.18632635	-0.11767979999999878	9.99297635
2026-05-02 12:16:14.256	-0.0784532	0.2059396500000012	9.7478101
2026-05-02 12:16:14.496	-0.1765197	-0.2941994999999988	9.8458766
2026-05-02 12:16:14.766	-0.2157463	-0.3236194499999988	9.9243298
2026-05-02 12:16:14.994	-0.1176798	0.1470997500000012	9.7478101
2026-05-02 12:16:15.268	-0.1176798	-0.08825984999999878	9.9243298
2026-05-02 12:16:15.497	-0.1569064	-0.35303939999999884	9.7870367
2026-05-02 12:16:15.755	-0.22555295	0.0490332500000012	9.8458766
2026-05-02 12:16:15.997	-0.16671305	-0.05883989999999879	9.9047165
2026-05-02 12:16:16.257	-0.00980665	-0.2647795499999988	9.7085835
2026-05-02 12:16:16.496	-0.196133	-0.08825984999999878	9.9439431
2026-05-02 12:16:16.756	-0.32361945000000003	0.029419950000001208	9.8458766
2026-05-02 12:16:17.002	-0.0588399	-0.2745861999999988	9.81645665
2026-05-02 12:16:17.257	0.02941995	-0.0882598499999988	9.81645665
2026-05-02 12:16:17.495	-0.3138128	-0.02941994999999879	9.87529655
2026-05-02 12:16:17.757	-0.3138128	-0.16671304999999878	9.87529655
2026-05-02 12:16:17.997	0.0392266	-0.1961329999999988	9.7870367
2026-05-02 12:16:18.257	-0.00980665	0.0490332500000012	9.8262633
2026-05-02 12:16:18.496	-0.42168595	-0.19613299999999878	9.93413645
2026-05-02 12:16:18.755	-0.20593965	-0.17651969999999878	9.8262633
2026-05-02 12:16:18.997	0.0980665	-0.07845319999999881	9.7674234
2026-05-02 12:16:19.257	-0.1765197	-0.0392265999999988	9.7674234
2026-05-02 12:16:19.498	-0.36284605000000003	-0.15690639999999875	10.0420096
2026-05-02 12:16:19.757	-0.0980665	-0.1961329999999988	9.75761675
2026-05-02 12:16:20.001	0.0	-0.019613299999998807	9.73800345
2026-05-02 12:16:20.257	-0.2549729	-0.07845319999999878	9.99297635
2026-05-02 12:16:20.494	-0.24516625	-0.2059396499999988	9.7870367
2026-05-02 12:16:20.754	-0.06864655	-0.1078731499999988	9.77723005
2026-05-02 12:16:20.997	-0.06864655	-0.0784531999999988	9.8654899
2026-05-02 12:16:21.255	-0.2549729	-0.009806649999998786	9.9243298
2026-05-02 12:16:21.495	-0.2157463	-0.3040061499999988	9.85568325
2026-05-02 12:16:21.755	-0.00980665	-0.06864654999999882	9.62032365
2026-05-02 12:16:21.998	-0.18632635	1.2225856818449843e-15	9.9831697
2026-05-02 12:16:22.257	-0.2549729	-0.16671304999999878	9.99297635
2026-05-02 12:16:22.498	-0.0588399	-0.2647795499999988	9.67916355
2026-05-02 12:16:22.755	-0.16671305	0.009806650000001204	9.83606995
2026-05-02 12:16:22.997	-0.2353596	-0.04903324999999879	9.8851032
2026-05-02 12:16:23.257	-0.0392266	-0.2843928499999988	9.85568325
2026-05-02 12:16:23.498	-0.12748645	-0.0490332499999988	9.8262633
2026-05-02 12:16:23.755	-0.30400615	-0.03922659999999879	9.8458766
2026-05-02 12:16:23.998	-0.16671305	-0.22555294999999878	9.87529655
2026-05-02 12:16:24.257	0.0588399	1.1925614755128384e-15	9.73800345
2026-05-02 12:16:24.495	-0.22555295	-0.16671304999999878	9.89490985
2026-05-02 12:16:24.754	-0.40207265000000003	-0.2549728999999988	9.93413645
2026-05-02 12:16:24.998	0.0	0.058839900000001194	9.75761675
2026-05-02 12:16:25.258	0.0196133	-0.0392265999999988	9.7674234
2026-05-02 12:16:25.496	-0.36284605000000003	-0.4020726499999988	9.9243298
2026-05-02 12:16:25.754	-0.26477955	1.2117769675654117e-15	9.89490985
2026-05-02 12:16:25.994	0.06864655	0.029419950000001197	9.7674234
2026-05-02 12:16:26.255	-0.14709975	-0.2843928499999988	9.79684335
2026-05-02 12:16:26.494	-0.32361945000000003	-0.15690639999999878	9.9243298
2026-05-02 12:16:26.754	-0.12748645	0.029419950000001208	9.85568325
2026-05-02 12:16:27.009	-0.0196133	-0.1372930999999988	9.75761675
2026-05-02 12:16:27.258	-0.22555295	-0.21574629999999878	9.8458766
2026-05-02 12:16:27.497	-0.18632635	-0.04903324999999878	9.9635564
2026-05-02 12:16:27.756	-0.10787315	-0.07845319999999881	9.7085835
2026-05-02 12:16:27.994	-0.16671305	-0.14709974999999878	9.93413645
2026-05-02 12:16:28.255	-0.1569064	-0.1274864499999988	9.81645665
2026-05-02 12:16:28.494	-0.1176798	-0.0980664999999988	9.8262633
2026-05-02 12:16:28.754	-0.22555295	-0.13729309999999878	9.9831697
2026-05-02 12:16:28.996	-0.14709975	-0.09806649999999882	9.6693569
2026-05-02 12:16:29.255	-0.06864655	-0.11767979999999878	9.91452315
2026-05-02 12:16:29.495	-0.196133	-0.1078731499999988	9.8458766
2026-05-02 12:16:29.753	-0.3530394	-0.2549728999999988	9.8458766
2026-05-02 12:16:29.995	-0.20593965	-0.2843928499999988	9.8458766
2026-05-02 12:16:30.254	-0.00980665	-0.25497289999999884	9.69877685
2026-05-02 12:16:30.494	-0.2157463	-0.21574629999999878	9.99297635
2026-05-02 12:16:30.767	-0.24516625	-0.21574629999999878	9.8458766
2026-05-02 12:16:30.994	-0.14709975	-0.1372930999999988	9.80665
2026-05-02 12:16:31.254	-0.196133	-0.2647795499999988	9.89490985
2026-05-02 12:16:31.494	-0.32361945000000003	-0.1667130499999988	9.7674234
2026-05-02 12:16:31.754	-0.2549729	-0.10787314999999878	9.91452315
2026-05-02 12:16:31.994	-0.1372931	-0.2255529499999988	9.73800345
2026-05-02 12:16:32.257	-0.32361945000000003	-0.1176797999999988	9.87529655
2026-05-02 12:16:32.494	-0.3334261	-0.11767979999999878	9.9243298
2026-05-02 12:16:32.757	-0.196133	-0.1667130499999988	9.6693569
2026-05-02 12:16:32.999	-0.3530394	-0.019613299999998786	9.9243298
2026-05-02 12:16:33.257	-0.3530394	0.009806650000001218	9.9439431
2026-05-02 12:16:33.497	-0.0392266	-0.06864654999999881	9.7674234
2026-05-02 12:16:33.755	-0.0588399	-0.1078731499999988	9.75761675
2026-05-02 12:16:33.997	-0.3138128	-0.05883989999999879	9.85568325
2026-05-02 12:16:34.258	-0.2549729	-0.04903324999999878	9.97336305
2026-05-02 12:16:34.497	0.16671305	-0.1569063999999988	9.7870367
2026-05-02 12:16:34.757	0.2353596	-0.1372930999999988	9.67916355
2026-05-02 12:16:34.994	-0.0588399	-0.06864654999999878	9.9831697
2026-05-02 12:16:35.258	-0.0588399	-0.21574629999999878	9.9047165
2026-05-02 12:16:35.497	0.24516625	-0.1667130499999988	9.65955025
2026-05-02 12:16:35.757	0.08825985	-0.019613299999998786	9.91452315
2026-05-02 12:16:35.997	-0.06864655	-0.23535959999999878	9.9439431
2026-05-02 12:16:36.263	0.0784532	-0.1961329999999988	9.69877685
2026-05-02 12:16:36.498	0.0	-0.04903324999999879	9.87529655
2026-05-02 12:16:36.756	-0.1372931	-0.13729309999999878	9.95374975
2026-05-02 12:16:36.995	0.0588399	-0.1667130499999988	9.67916355
2026-05-02 12:16:37.258	-0.0588399	-0.10787314999999878	9.9243298
2026-05-02 12:16:37.497	-0.16671305	-0.14709974999999878	9.9047165
2026-05-02 12:16:37.757	0.0	-0.05883989999999881	9.71839015
2026-05-02 12:16:37.994	-0.06864655	-0.23535959999999878	9.9243298
2026-05-02 12:16:38.255	-0.1372931	-0.0980664999999988	9.87529655
2026-05-02 12:16:38.498	-0.0196133	0.029419950000001194	9.73800345
2026-05-02 12:16:38.761	-0.16671305	-0.23535959999999878	9.9831697
2026-05-02 12:16:38.995	-0.0392266	-0.1569063999999988	9.75761675
2026-05-02 12:16:39.259	-0.0196133	0.049033250000001194	9.7674234
2026-05-02 12:16:39.494	-0.2157463	-0.16671304999999878	10.03220295
2026-05-02 12:16:39.755	-0.0588399	-0.2353595999999988	9.6693569
2026-05-02 12:16:39.998	-0.0784532	0.03922660000000121	9.9047165
2026-05-02 12:16:40.254	-0.1176798	-0.1078731499999988	9.8851032
2026-05-02 12:16:40.495	-0.1372931	-0.25497289999999884	9.75761675
2026-05-02 12:16:40.754	-0.18632635	1.2189827770851268e-15	9.95374975
2026-05-02 12:16:40.994	-0.1176798	-0.09806649999999882	9.73800345
2026-05-02 12:16:41.258	-0.14709975	-0.2157462999999988	9.79684335
2026-05-02 12:16:41.495	-0.26477955	-0.029419949999998772	10.01258965
2026-05-02 12:16:41.755	-0.1372931	-0.07845319999999881	9.73800345
2026-05-02 12:16:41.997	-0.0784532	-0.2157462999999988	9.75761675
2026-05-02 12:16:42.255	-0.28439285000000003	-0.019613299999998775	10.01258965
2026-05-02 12:16:42.494	-0.1765197	-0.0882598499999988	9.75761675
2026-05-02 12:16:42.753	-0.10787315	-0.1569063999999988	9.81645665
2026-05-02 12:16:42.998	-0.1569064	-0.1078731499999988	9.8458766
2026-05-02 12:16:43.255	-0.2353596	-0.04903324999999879	9.87529655
2026-05-02 12:16:43.494	-0.1176798	-0.1078731499999988	9.87529655
2026-05-02 12:16:43.759	-0.1176798	-0.1176797999999988	9.7478101
2026-05-02 12:16:43.997	-0.196133	-0.08825984999999878	9.95374975
2026-05-02 12:16:44.255	-0.00980665	-0.1372930999999988	9.7870367
2026-05-02 12:16:44.494	-0.10787315	-0.0686465499999988	9.83606995
2026-05-02 12:16:44.759	-0.2941995	-0.11767979999999878	10.002783
2026-05-02 12:16:44.995	-0.02941995	-0.07845319999999882	9.6693569
2026-05-02 12:16:45.255	0.02941995	-0.1372930999999988	9.85568325
2026-05-02 12:16:45.498	-0.1372931	-0.06864654999999878	9.9439431
2026-05-02 12:16:45.754	-0.1176798	-0.07845319999999881	9.7478101
2026-05-02 12:16:45.995	-0.1372931	-0.14709974999999878	9.95374975
2026-05-02 12:16:46.255	-0.0392266	-0.06864654999999881	9.7281968
2026-05-02 12:16:46.495	-0.0196133	-0.0686465499999988	9.83606995
2026-05-02 12:16:46.756	-0.1176798	-0.13729309999999878	9.97336305
2026-05-02 12:16:46.994	-0.12748645	-0.0686465499999988	9.81645665
2026-05-02 12:16:47.258	0.0	-0.0980664999999988	9.7478101
2026-05-02 12:16:47.496	-0.0588399	-0.1176797999999988	9.87529655
2026-05-02 12:16:47.765	-0.0784532	-0.019613299999998786	9.9047165
2026-05-02 12:16:47.999	-0.0392266	-0.1372930999999988	9.77723005
2026-05-02 12:16:48.257	-0.12748645	-0.1274864499999988	9.87529655
2026-05-02 12:16:48.496	-0.0784532	-0.029419949999998793	9.8458766
2026-05-02 12:16:48.756	0.0	-0.1470997499999988	9.7674234
2026-05-02 12:16:48.997	-0.06864655	-0.09806649999999878	9.9439431
2026-05-02 12:16:49.258	-0.1372931	-0.039226599999998786	9.9047165
2026-05-02 12:16:49.498	-0.00980665	-0.1765196999999988	9.67916355
2026-05-02 12:16:49.756	-0.08825985	-0.07845319999999878	9.9831697
2026-05-02 12:16:49.995	-0.0196133	-0.0490332499999988	9.8262633
2026-05-02 12:16:50.263	-0.0588399	-0.1765196999999988	9.7674234
2026-05-02 12:16:50.497	-0.0980665	-0.10787314999999878	9.9439431
2026-05-02 12:16:50.757	-0.02941995	-0.03922659999999881	9.7478101
2026-05-02 12:16:50.997	-0.02941995	-0.11767979999999878	9.9243298
2026-05-02 12:16:51.257	0.0	-0.1863263499999988	9.7478101
2026-05-02 12:16:51.496	-0.1765197	-0.03922659999999878	9.9439431
2026-05-02 12:16:51.762	-0.04903325	-0.039226599999998786	9.9047165
2026-05-02 12:16:51.998	0.0196133	-0.1961329999999988	9.639936950000001
2026-05-02 12:16:52.256	-0.2157463	-0.08825984999999877	10.07142955
2026-05-02 12:16:52.494	-0.0588399	-0.01961329999999881	9.7281968
2026-05-02 12:16:52.757	-0.04903325	-0.1569063999999988	9.80665
2026-05-02 12:16:52.997	-0.08825985	-0.10787314999999878	9.9439431
2026-05-02 12:16:53.258	-0.0196133	-0.02941994999999881	9.71839015
2026-05-02 12:16:53.494	-0.0392266	-0.11767979999999878	9.9243298
2026-05-02 12:16:53.755	-0.04903325	-0.1176797999999988	9.8654899
2026-05-02 12:16:53.998	-0.12748645	-0.0980664999999988	9.83606995
2026-05-02 12:16:54.260	-0.0784532	-0.05883989999999879	9.8851032
2026-05-02 12:16:54.497	-0.0588399	-0.1176797999999988	9.80665
2026-05-02 12:16:54.754	-0.06864655	-0.1569063999999988	9.8458766
2026-05-02 12:16:54.994	-0.02941995	-0.0490332499999988	9.83606995
2026-05-02 12:16:55.258	-0.20593965	-0.07845319999999878	9.97336305
2026-05-02 12:16:55.503	-0.0588399	-0.1569063999999988	9.73800345
2026-05-02 12:16:55.762	-0.0980665	-0.1274864499999988	9.81645665
2026-05-02 12:16:55.998	-0.0980665	-0.02941994999999879	9.8851032
2026-05-02 12:16:56.258	-0.1372931	-0.1569063999999988	9.85568325
2026-05-02 12:16:56.498	-0.0980665	-0.1569063999999988	9.83606995
2026-05-02 12:16:56.757	-0.0784532	-0.009806649999998803	9.77723005
2026-05-02 12:16:56.995	-0.1765197	-0.13729309999999878	9.9635564
2026-05-02 12:16:57.255	-0.0196133	-0.2255529499999988	9.71839015
2026-05-02 12:16:57.496	-0.10787315	-0.02941994999999879	9.8851032
2026-05-02 12:16:57.756	-0.10787315	-0.04903324999999878	9.95374975
2026-05-02 12:16:58.001	0.04903325	-0.2059396499999988	9.6889702
2026-05-02 12:16:58.258	-0.1372931	-0.11767979999999878	9.9439431
2026-05-02 12:16:58.495	-0.18632635	-0.009806649999998793	9.85568325
2026-05-02 12:16:58.756	0.0588399	-0.2059396499999988	9.75761675
2026-05-02 12:16:58.998	-0.12748645	-0.10787314999999878	9.91452315
2026-05-02 12:16:59.257	-0.0980665	-0.0686465499999988	9.81645665
2026-05-02 12:16:59.497	-0.16671305	-0.16671304999999878	9.9047165
2026-05-02 12:16:59.762	0.0784532	-0.1961329999999988	9.7478101
2026-05-02 12:16:59.995	-0.02941995	-0.04903324999999879	9.91452315
2026-05-02 12:17:00.260	-0.0980665	-0.15690639999999878	9.9047165
2026-05-02 12:17:00.497	-0.0196133	-0.1961329999999988	9.69877685
2026-05-02 12:17:00.765	-0.16671305	-0.02941994999999877	10.05181625
2026-05-02 12:17:00.997	0.0784532	-0.2353595999999988	9.65955025
2026-05-02 12:17:01.258	0.0196133	-0.17651969999999878	9.87529655
2026-05-02 12:17:01.497	-0.0392266	-0.04903324999999878	9.93413645
2026-05-02 12:17:01.756	0.0392266	-0.11767979999999882	9.6497436
2026-05-02 12:17:01.994	-0.12748645	-0.17651969999999878	10.05181625
2026-05-02 12:17:02.258	-0.0588399	-0.11767979999999882	9.71839015
2026-05-02 12:17:02.494	-0.04903325	-0.1078731499999988	9.83606995
2026-05-02 12:17:02.754	-0.1176798	-0.03922659999999878	9.9635564
2026-05-02 12:17:02.994	-0.0784532	-0.2353595999999988	9.77723005
2026-05-02 12:17:03.258	0.0	-0.1863263499999988	9.80665
2026-05-02 12:17:03.501	-0.06864655	0.01961330000000121	9.8851032
2026-05-02 12:17:03.755	0.0	-0.1569063999999988	9.8262633
2026-05-02 12:17:03.994	0.0	-0.24516624999999878	9.8851032
2026-05-02 12:17:04.257	-0.0588399	-0.0392265999999988	9.80665
2026-05-02 12:17:04.494	-0.24516625	-0.019613299999998782	9.93413645
2026-05-02 12:17:04.758	0.0588399	-0.27458619999999884	9.80665
2026-05-02 12:17:05.000	-0.0196133	-0.0686465499999988	9.79684335
2026-05-02 12:17:05.256	-0.1372931	-0.03922659999999878	9.9635564
2026-05-02 12:17:05.494	-0.1569064	-0.20593964999999878	9.8654899
2026-05-02 12:17:05.756	0.0588399	-0.1765196999999988	9.6301303
2026-05-02 12:17:05.994	-0.10787315	1.2213847135916984e-15	9.97336305
2026-05-02 12:17:06.257	-0.1372931	-0.13729309999999878	9.9047165
2026-05-02 12:17:06.494	-0.0196133	-0.2353595999999988	9.69877685
2026-05-02 12:17:06.754	-0.1569064	-0.04903324999999878	9.95374975
2026-05-02 12:17:06.994	-0.0980665	-0.0686465499999988	9.7870367
2026-05-02 12:17:07.256	-0.0588399	-0.1372930999999988	9.77723005
2026-05-02 12:17:07.500	-0.10787315	-0.16671304999999878	9.9047165
2026-05-02 12:17:07.755	-0.1176798	-0.0686465499999988	9.8262633
2026-05-02 12:17:07.995	-0.1372931	-0.0686465499999988	9.85568325
2026-05-02 12:17:08.258	-0.04903325	-0.16671304999999878	9.81645665
2026-05-02 12:17:08.494	-0.06864655	-0.1176797999999988	9.80665
2026-05-02 12:17:08.755	-0.12748645	-0.04903324999999878	9.9243298
2026-05-02 12:17:09.000	-0.06864655	-0.0980664999999988	9.83606995
2026-05-02 12:17:09.265	-0.06864655	-0.2059396499999988	9.75761675
2026-05-02 12:17:09.497	-0.1176798	-0.039226599999998786	9.9047165
2026-05-02 12:17:09.754	-0.0980665	-0.0980664999999988	9.8458766
2026-05-02 12:17:09.995	-0.08825985	-0.1372930999999988	9.87529655
2026-05-02 12:17:10.255	-0.0980665	-0.1274864499999988	9.81645665
2026-05-02 12:17:10.497	-0.2353596	-0.0588398999999988	9.83606995
2026-05-02 12:17:10.754	-0.34323275	-0.05883989999999879	9.85568325
2026-05-02 12:17:10.997	-0.392266	-0.1176797999999988	9.8851032
2026-05-02 12:17:11.255	-0.2157463	1.2057721262989826e-15	9.8458766
2026-05-02 12:17:11.498	-0.20593965	1.1961643802726959e-15	9.7674234
2026-05-02 12:17:11.756	-0.24516625	-0.0686465499999988	9.83606995
2026-05-02 12:17:11.994	-0.30400615	0.15690640000000122	9.81645665
2026-05-02 12:17:12.255	-0.38245935	-0.009806649999998782	9.9439431
2026-05-02 12:17:12.495	-0.24516625	-0.1078731499999988	9.7478101
2026-05-02 12:17:12.757	-0.18632635	0.0588399000000012	9.83606995
2026-05-02 12:17:12.994	-0.2941995	0.05883990000000121	9.9047165
2026-05-02 12:17:13.255	-0.28439285000000003	-0.009806649999998796	9.83606995
2026-05-02 12:17:13.494	-0.2353596	-0.1078731499999988	9.80665
2026-05-02 12:17:13.757	-0.2549729	0.12748645000000122	9.91452315
2026-05-02 12:17:13.995	-0.20593965	0.10787315000000121	9.79684335
2026-05-02 12:17:14.256	-0.2549729	-0.17651969999999878	9.85568325
2026-05-02 12:17:14.495	-0.3138128	0.05883990000000121	9.89490985
2026-05-02 12:17:14.754	-0.20593965	0.1372931000000012	9.7281968
2026-05-02 12:17:14.994	-0.24516625	-0.05883989999999878	9.9439431
2026-05-02 12:17:15.257	-0.34323275	-0.0490332499999988	9.83606995
2026-05-02 12:17:15.496	-0.30400615	0.0196133000000012	9.8262633
2026-05-02 12:17:15.755	-0.1569064	1.19496341201941e-15	9.75761675
2026-05-02 12:17:15.994	-0.26477955	-0.0784531999999988	9.89490985
2026-05-02 12:17:16.255	-0.3726527	-0.08825984999999878	9.91452315
2026-05-02 12:17:16.495	-0.1765197	-0.019613299999998807	9.73800345
2026-05-02 12:17:16.754	-0.24516625	-0.0980664999999988	9.83606995
2026-05-02 12:17:16.997	-0.3726527	-0.1569063999999988	9.8851032
2026-05-02 12:17:17.255	-0.2745862	-0.1961329999999988	9.80665
2026-05-02 12:17:17.497	-0.0784532	-0.2059396499999988	9.80665
2026-05-02 12:17:17.754	-0.0980665	-0.0980664999999988	9.80665
2026-05-02 12:17:17.994	-0.2353596	-0.16671304999999878	9.9439431
2026-05-02 12:17:18.255	0.0	-0.1470997499999988	9.75761675
2026-05-02 12:17:18.494	0.16671305	0.0294199500000012	9.81645665
2026-05-02 12:17:18.753	0.1176798	-0.0882598499999988	9.87529655
2026-05-02 12:17:18.995	0.00980665	-0.1078731499999988	9.8262633
2026-05-02 12:17:19.257	0.02941995	1.2129779358186976e-15	9.9047165
2026-05-02 12:17:19.501	0.0392266	-0.05883989999999881	9.7674234
2026-05-02 12:17:19.757	0.0196133	-0.009806649999998791	9.87529655
2026-05-02 12:17:19.994	0.02941995	0.0392266000000012	9.8458766
2026-05-02 12:17:20.257	-0.0784532	-0.0882598499999988	9.83606995
2026-05-02 12:17:20.497	-0.06864655	-0.029419949999998786	9.91452315
2026-05-02 12:17:20.759	0.0196133	-0.01961329999999881	9.71839015
2026-05-02 12:17:20.994	-0.1176798	-0.08825984999999878	9.9243298
2026-05-02 12:17:21.259	-0.1569064	-0.04903324999999878	9.9243298
2026-05-02 12:17:21.500	-0.08825985	-0.058839899999998814	9.67916355
2026-05-02 12:17:21.755	-0.1765197	-0.14709974999999878	9.9635564
2026-05-02 12:17:21.997	-0.1569064	-0.03922659999999879	9.8458766
2026-05-02 12:17:22.256	-0.1569064	1.1973653485259817e-15	9.77723005
2026-05-02 12:17:22.496	-0.26477955	-0.17651969999999878	9.9047165
2026-05-02 12:17:22.755	-0.2157463	-0.0980664999999988	9.7674234
2026-05-02 12:17:22.996	-0.2157463	-0.039226599999998786	9.93413645
2026-05-02 12:17:23.259	-0.2157463	-0.1176797999999988	9.81645665
2026-05-02 12:17:23.502	-0.2941995	-0.1372930999999988	9.7870367
2026-05-02 12:17:23.758	-0.3530394	-0.06864654999999878	9.9831697
2026-05-02 12:17:23.997	-0.18632635	-0.09806649999999882	9.6889702
2026-05-02 12:17:24.257	-0.2549729	-0.17651969999999878	9.9243298
2026-05-02 12:17:24.498	-0.2941995	-0.1078731499999988	9.8262633
2026-05-02 12:17:24.755	-0.22555295	-0.0980664999999988	9.7870367
2026-05-02 12:17:24.994	-0.2353596	-0.10787314999999878	9.9243298
2026-05-02 12:17:25.257	-0.18632635	-0.1372930999999988	9.75761675
2026-05-02 12:17:25.500	-0.196133	-0.1274864499999988	9.8654899
2026-05-02 12:17:25.755	-0.26477955	-0.06864654999999878	9.95374975
2026-05-02 12:17:25.999	-0.1765197	-0.1569063999999988	9.7478101
2026-05-02 12:17:26.259	-0.1176798	-0.06864654999999881	9.73800345
2026-05-02 12:17:26.494	-0.26477955	-0.16671304999999878	9.9831697
2026-05-02 12:17:26.756	-0.2353596	-0.1569063999999988	9.8654899
2026-05-02 12:17:26.997	-0.0784532	-0.009806649999998808	9.73800345
2026-05-02 12:17:27.257	-0.1569064	-0.1274864499999988	9.79684335
2026-05-02 12:17:27.496	-0.2941995	-0.23535959999999878	9.9439431
2026-05-02 12:17:27.757	-0.14709975	-0.04903324999999879	9.87529655
2026-05-02 12:17:27.997	-0.1176798	-0.03922659999999881	9.7478101
2026-05-02 12:17:28.257	-0.196133	-0.21574629999999878	9.8458766
2026-05-02 12:17:28.496	-0.22555295	-0.13729309999999878	9.89490985
2026-05-02 12:17:28.760	-0.14709975	-0.029419949999998793	9.8654899
2026-05-02 12:17:28.995	-0.1569064	-0.1176797999999988	9.7674234
2026-05-02 12:17:29.260	-0.1569064	-0.17651969999999878	9.83606995
2026-05-02 12:17:29.497	-0.22555295	-0.11767979999999878	9.93413645
2026-05-02 12:17:29.756	-0.14709975	-0.0882598499999988	9.8262633
2026-05-02 12:17:29.997	-0.08825985	-0.1078731499999988	9.7478101
2026-05-02 12:17:30.260	-0.24516625	-0.16671304999999878	9.9243298
2026-05-02 12:17:30.496	-0.24516625	-0.13729309999999878	9.9047165
2026-05-02 12:17:30.762	-0.00980665	-0.08825984999999882	9.73800345
2026-05-02 12:17:30.997	-0.1569064	-0.0490332499999988	9.8262633
2026-05-02 12:17:31.257	-0.32361945000000003	-0.23535959999999878	9.99297635
2026-05-02 12:17:31.497	-0.1176798	-0.1274864499999988	9.7281968
2026-05-02 12:17:31.756	-0.06864655	0.0392266000000012	9.81645665
2026-05-02 12:17:31.994	-0.20593965	-0.23535959999999878	9.93413645
2026-05-02 12:17:32.263	-0.196133	-0.2157462999999988	9.77723005
2026-05-02 12:17:32.496	-0.1569064	0.009806650000001211	9.89490985
2026-05-02 12:17:32.756	-0.1569064	-0.0588398999999988	9.8262633
2026-05-02 12:17:32.996	-0.1176798	-0.27458619999999884	9.80665
2026-05-02 12:17:33.258	-0.1765197	-0.15690639999999878	9.9047165
2026-05-02 12:17:33.497	-0.2157463	0.0588399000000012	9.79684335
2026-05-02 12:17:33.755	-0.1569064	-0.13729309999999878	9.91452315
2026-05-02 12:17:33.997	-0.0784532	-0.3040061499999988	9.7478101
2026-05-02 12:17:34.258	-0.20593965	0.029419950000001208	9.85568325
2026-05-02 12:17:34.497	-0.22555295	-0.05883989999999878	9.95374975
2026-05-02 12:17:34.755	-0.0784532	-0.25497289999999884	9.6889702
2026-05-02 12:17:34.994	-0.14709975	-0.11767979999999878	9.9047165
2026-05-02 12:17:35.257	-0.2353596	0.029419950000001208	9.85568325
2026-05-02 12:17:35.503	-0.14709975	-0.21574629999999878	9.83606995
2026-05-02 12:17:35.757	-0.0980665	-0.17651969999999878	9.8654899
2026-05-02 12:17:35.994	-0.1765197	1.19496341201941e-15	9.75761675
2026-05-02 12:17:36.262	-0.2549729	-0.10787314999999878	9.95374975
2026-05-02 12:17:36.496	-0.0784532	-0.21574629999999878	9.83606995
2026-05-02 12:17:36.754	-0.06864655	-0.0882598499999988	9.7478101
2026-05-02 12:17:36.997	-0.2941995	-0.009806649999998786	9.91452315
2026-05-02 12:17:37.256	-0.1765197	-0.18632634999999878	9.83606995
2026-05-02 12:17:37.497	-0.02941995	-0.19613299999999878	9.81645665
2026-05-02 12:17:37.762	-0.18632635	1.2057721262989826e-15	9.8458766
2026-05-02 12:17:38.004	-0.2549729	-0.1078731499999988	9.8851032
2026-05-02 12:17:38.258	-0.08825985	-0.23535959999999878	9.85568325
2026-05-02 12:17:38.496	-0.10787315	-0.04903324999999881	9.75761675
2026-05-02 12:17:38.757	-0.22555295	-0.029419949999998786	9.9047165
2026-05-02 12:17:38.997	-0.1765197	-0.2647795499999988	9.8851032
2026-05-02 12:17:39.254	-0.0784532	-0.0882598499999988	9.80665
2026-05-02 12:17:39.498	-0.14709975	0.029419950000001197	9.79684335
2026-05-02 12:17:39.758	-0.2353596	-0.3138127999999988	9.89490985
2026-05-02 12:17:39.994	-0.1765197	-0.0784531999999988	9.89490985
2026-05-02 12:17:40.257	-0.0392266	0.019613300000001197	9.7674234
2026-05-02 12:17:40.496	-0.16671305	-0.2549728999999988	9.81645665
2026-05-02 12:17:40.755	-0.3138128	-0.05883989999999878	9.9439431
2026-05-02 12:17:40.997	-0.0588399	-0.1078731499999988	9.8262633
2026-05-02 12:17:41.261	-0.04903325	-0.1863263499999988	9.7085835
2026-05-02 12:17:41.496	-0.2941995	-0.009806649999998775	10.002783
2026-05-02 12:17:41.755	-0.1765197	-0.1470997499999988	9.8458766
2026-05-02 12:17:41.997	-0.0392266	-0.1765196999999988	9.71839015
2026-05-02 12:17:42.259	-0.2157463	-0.029419949999998782	9.95374975
2026-05-02 12:17:42.495	-0.18632635	-0.1078731499999988	9.8262633
2026-05-02 12:17:42.756	-0.10787315	-0.24516624999999878	9.8458766
2026-05-02 12:17:42.996	-0.1372931	1.202169221539125e-15	9.81645665
2026-05-02 12:17:43.257	-0.16671305	-0.0784531999999988	9.80665
2026-05-02 12:17:43.498	-0.20593965	-0.2549728999999988	9.95374975
2026-05-02 12:17:43.756	-0.0980665	-0.07845319999999881	9.7674234
2026-05-02 12:17:43.998	-0.0980665	1.2081740628055542e-15	9.8654899
2026-05-02 12:17:44.257	-0.196133	-0.24516624999999878	9.87529655
2026-05-02 12:17:44.496	-0.1372931	-0.1569063999999988	9.77723005
2026-05-02 12:17:44.757	-0.04903325	1.2105759993121259e-15	9.8851032
2026-05-02 12:17:44.994	-0.0980665	-0.19613299999999878	9.85568325
2026-05-02 12:17:45.258	-0.1765197	-0.1863263499999988	9.7870367
2026-05-02 12:17:45.496	-0.1176798	-0.05883989999999879	9.8851032
2026-05-02 12:17:45.766	-0.00980665	-0.18632634999999878	9.81645665
2026-05-02 12:17:45.997	-0.10787315	-0.1078731499999988	9.81645665
2026-05-02 12:17:46.257	-0.196133	-0.18632634999999878	9.9439431
2026-05-02 12:17:46.496	-0.04903325	-0.1274864499999988	9.75761675
2026-05-02 12:17:46.768	-0.0392266	-0.1274864499999988	9.87529655
2026-05-02 12:17:46.996	-0.06864655	-0.1470997499999988	9.81645665
2026-05-02 12:17:47.256	-0.0784532	-0.2059396499999988	9.80665
2026-05-02 12:17:47.498	-0.04903325	-0.10787314999999878	9.9831697
2026-05-02 12:17:47.765	0.02941995	-0.10787314999999882	9.6889702
2026-05-02 12:17:47.998	-0.0588399	-0.23535959999999878	9.89490985
2026-05-02 12:17:48.258	-0.0588399	-0.15690639999999878	9.89490985
2026-05-02 12:17:48.499	0.0	-0.1078731499999988	9.79684335
2026-05-02 12:17:48.756	-0.0196133	-0.16671304999999878	9.8851032
2026-05-02 12:17:48.997	-0.02941995	-0.1765196999999988	9.79684335
2026-05-02 12:17:49.258	0.00980665	-0.17651969999999878	9.8262633
2026-05-02 12:17:49.499	-0.0784532	-0.12748644999999878	9.9439431
2026-05-02 12:17:49.768	-0.0196133	-0.1078731499999988	9.7870367
2026-05-02 12:17:49.994	0.0	-0.2157462999999988	9.7870367
2026-05-02 12:17:50.257	-0.1372931	-0.19613299999999878	9.9635564
2026-05-02 12:17:50.494	-0.0196133	-0.0980664999999988	9.7870367
2026-05-02 12:17:50.757	0.0	-0.1470997499999988	9.77723005
2026-05-02 12:17:50.997	-0.14709975	-0.22555294999999878	9.9635564
2026-05-02 12:17:51.258	-0.0588399	-0.1569063999999988	9.7674234
2026-05-02 12:17:51.497	-0.0588399	-0.1274864499999988	9.83606995
2026-05-02 12:17:51.764	-0.12748645	-0.19613299999999878	9.89490985
2026-05-02 12:17:51.997	-0.02941995	-0.1863263499999988	9.75761675
2026-05-02 12:17:52.257	-0.0784532	-0.1470997499999988	9.8458766
2026-05-02 12:17:52.497	-0.12748645	-0.15690639999999878	9.91452315
2026-05-02 12:17:52.756	-0.0784532	-0.2157462999999988	9.7478101
2026-05-02 12:17:52.997	-0.1372931	-0.0686465499999988	9.8851032
2026-05-02 12:17:53.259	-0.06864655	-0.1372930999999988	9.81645665
2026-05-02 12:17:53.497	-0.08825985	-0.24516624999999878	9.85568325
2026-05-02 12:17:53.758	-0.12748645	-0.05883989999999879	9.8851032
2026-05-02 12:17:53.997	-0.04903325	-0.1176797999999988	9.75761675
2026-05-02 12:17:54.257	-0.16671305	-0.19613299999999878	9.9439431
2026-05-02 12:17:54.496	-0.0980665	-0.0882598499999988	9.80665
2026-05-02 12:17:54.756	-0.0784532	-0.1176797999999988	9.7870367
2026-05-02 12:17:54.994	-0.14709975	-0.12748644999999878	9.9243298
2026-05-02 12:17:55.258	-0.08825985	-0.0980664999999988	9.81645665
2026-05-02 12:17:55.497	-0.08825985	-0.16671304999999878	9.8851032
2026-05-02 12:17:55.756	-0.1176798	-0.0588398999999988	9.81645665
2026-05-02 12:17:55.995	-0.16671305	-0.14709974999999878	9.89490985
2026-05-02 12:17:56.255	-0.10787315	-0.1078731499999988	9.80665
2026-05-02 12:17:56.498	-0.1176798	-0.0588398999999988	9.80665
2026-05-02 12:17:56.764	-0.16671305	-0.22555294999999878	9.9243298
2026-05-02 12:17:56.997	-0.0980665	-0.0980664999999988	9.7870367
2026-05-02 12:17:57.259	-0.1569064	-0.009806649999998796	9.83606995
2026-05-02 12:17:57.495	-0.196133	-0.20593964999999878	9.8851032
2026-05-02 12:17:57.762	-0.1372931	-0.1274864499999988	9.77723005
2026-05-02 12:17:57.997	-0.12748645	-0.05883989999999879	9.87529655
2026-05-02 12:17:58.256	-0.1176798	-0.1569063999999988	9.85568325
2026-05-02 12:17:58.499	-0.16671305	-0.0784531999999988	9.79684335
2026-05-02 12:17:58.755	-0.1765197	-0.05883989999999879	9.91452315
2026-05-02 12:17:58.997	-0.1176798	-0.2157462999999988	9.77723005
2026-05-02 12:17:59.260	-0.12748645	-0.019613299999998793	9.87529655
2026-05-02 12:17:59.494	-0.1176798	-0.03922659999999879	9.8458766
2026-05-02 12:17:59.759	-0.1372931	-0.2059396499999988	9.79684335
2026-05-02 12:17:59.997	-0.1765197	-0.03922659999999879	9.89490985
2026-05-02 12:18:00.257	-0.1372931	-0.0882598499999988	9.81645665
2026-05-02 12:18:00.494	-0.0980665	-0.1078731499999988	9.8458766
2026-05-02 12:18:00.763	-0.1372931	-0.1470997499999988	9.8851032
2026-05-02 12:18:00.997	-0.12748645	-0.0392265999999988	9.80665
2026-05-02 12:18:01.255	-0.14709975	-0.10787314999999878	9.9243298
2026-05-02 12:18:01.494	-0.10787315	-0.1274864499999988	9.79684335
2026-05-02 12:18:01.809	-0.10787315	-0.0392265999999988	9.79684335
2026-05-02 12:18:02.000	-0.1765197	-0.17651969999999878	9.9439431
2026-05-02 12:18:02.256	-0.0784532	-0.11767979999999882	9.73800345
2026-05-02 12:18:02.498	-0.1176798	-0.0784531999999988	9.85568325
2026-05-02 12:18:02.754	-0.18632635	-0.12748644999999878	9.91452315
2026-05-02 12:18:02.995	-0.10787315	-0.2059396499999988	9.75761675
2026-05-02 12:18:03.258	-0.0980665	-0.0392265999999988	9.81645665
2026-05-02 12:18:03.498	-0.1176798	-0.13729309999999878	9.9047165
2026-05-02 12:18:03.754	-0.12748645	-0.1667130499999988	9.77723005
2026-05-02 12:18:03.997	-0.1176798	-0.1274864499999988	9.8654899
2026-05-02 12:18:04.258	-0.08825985	-0.14709974999999878	9.9047165
2026-05-02 12:18:04.495	-0.04903325	-0.1372930999999988	9.75761675
2026-05-02 12:18:04.754	-0.1569064	-0.18632634999999878	9.8262633
2026-05-02 12:18:04.994	-0.4118793	-0.21574629999999878	9.9047165
2026-05-02 12:18:05.256	-0.46091255	-0.1078731499999988	9.8458766
2026-05-02 12:18:05.494	-0.08825985	-0.019613299999998793	9.8458766
2026-05-02 12:18:05.758	-0.0980665	-0.019613299999998803	9.7674234
2026-05-02 12:18:05.996	-0.26477955	1.2045711580456967e-15	9.83606995
2026-05-02 12:18:06.257	-0.26477955	-0.04903324999999879	9.91452315
2026-05-02 12:18:06.497	-0.1765197	0.029419950000001197	9.77723005
2026-05-02 12:18:06.756	-0.26477955	0.0392266000000012	9.8458766
2026-05-02 12:18:06.998	-0.2549729	-0.0686465499999988	9.85568325
2026-05-02 12:18:07.256	-0.24516625	0.0588399000000012	9.79684335
2026-05-02 12:18:07.494	-0.22555295	-0.00980664999999879	9.8851032
2026-05-02 12:18:07.761	-0.26477955	-0.019613299999998803	9.7674234
2026-05-02 12:18:07.999	-0.2745862	-0.04903324999999879	9.89490985
2026-05-02 12:18:08.259	-0.16671305	0.009806650000001202	9.81645665
2026-05-02 12:18:08.496	-0.2745862	-0.019613299999998793	9.85568325
2026-05-02 12:18:08.755	-0.2549729	-0.02941994999999879	9.8851032
2026-05-02 12:18:08.997	-0.1765197	-0.07845319999999881	9.7281968
2026-05-02 12:18:09.266	-0.22555295	0.009806650000001221	9.97336305
2026-05-02 12:18:09.498	-0.2549729	0.0294199500000012	9.80665
2026-05-02 12:18:09.765	-0.16671305	-0.1372930999999988	9.77723005
2026-05-02 12:18:09.994	-0.2549729	0.009806650000001214	9.9243298
2026-05-02 12:18:10.257	-0.2745862	0.06864655000000121	9.83606995
2026-05-02 12:18:10.496	-0.2157463	-0.0882598499999988	9.79684335
2026-05-02 12:18:10.755	-0.32361945000000003	-0.09806649999999878	9.89490985
2026-05-02 12:18:10.997	-0.2353596	0.06864655000000121	9.8262633
2026-05-02 12:18:11.259	-0.20593965	-0.0784531999999988	9.8262633
2026-05-02 12:18:11.497	-0.26477955	-0.1078731499999988	9.85568325
2026-05-02 12:18:11.757	-0.26477955	-0.0784531999999988	9.85568325
2026-05-02 12:18:11.998	-0.18632635	-0.2549728999999988	9.81645665
2026-05-02 12:18:12.257	-0.22555295	-0.1274864499999988	9.8458766
2026-05-02 12:18:12.497	-0.2157463	-0.0980664999999988	9.83606995
2026-05-02 12:18:12.755	-0.20593965	-0.16671304999999878	9.83606995
2026-05-02 12:18:12.997	-0.0392266	-0.08825984999999878	9.9047165
2026-05-02 12:18:13.257	0.06864655	-0.019613299999998817	9.67916355
2026-05-02 12:18:13.496	0.0	-0.08825984999999878	9.9831697
2026-05-02 12:18:13.755	0.02941995	-0.0294199499999988	9.81645665
2026-05-02 12:18:14.001	0.0196133	-0.0392265999999988	9.7870367
2026-05-02 12:18:14.258	-0.04903325	-0.019613299999998782	9.95374975
2026-05-02 12:18:14.501	0.00980665	-0.05883989999999881	9.73800345
2026-05-02 12:18:14.755	0.0	-0.019613299999998786	9.9243298
2026-05-02 12:18:15.000	-0.0392266	1.202169221539125e-15	9.81645665
2026-05-02 12:18:15.259	-0.0588399	-0.1470997499999988	9.79684335
2026-05-02 12:18:15.497	-0.12748645	-0.06864654999999878	9.9635564
2026-05-02 12:18:15.760	-0.0392266	0.0686465500000012	9.7281968
2026-05-02 12:18:15.997	-0.1176798	-0.22555294999999878	9.8654899
2026-05-02 12:18:16.259	-0.20593965	-0.03922659999999878	9.95374975
2026-05-02 12:18:16.496	-0.12748645	-0.039226599999998814	9.71839015
2026-05-02 12:18:16.756	-0.2157463	-0.17651969999999878	9.95374975
2026-05-02 12:18:16.998	-0.14709975	-0.0882598499999988	9.7674234
2026-05-02 12:18:17.257	-0.2157463	-0.0686465499999988	9.8458766
2026-05-02 12:18:17.496	-0.2549729	-0.15690639999999878	9.91452315
2026-05-02 12:18:17.756	-0.1176798	-0.1470997499999988	9.6889702
2026-05-02 12:18:17.997	-0.2549729	-0.04903324999999878	9.9635564
2026-05-02 12:18:18.255	-0.22555295	-0.1274864499999988	9.83606995
2026-05-02 12:18:18.497	-0.1569064	-0.1667130499999988	9.7674234
2026-05-02 12:18:18.755	-0.24516625	-0.10787314999999878	9.95374975
2026-05-02 12:18:19.006	-0.24516625	-0.0882598499999988	9.77723005
2026-05-02 12:18:19.258	-0.16671305	-0.1667130499999988	9.80665
2026-05-02 12:18:19.496	-0.2549729	-0.10787314999999878	9.91452315
2026-05-02 12:18:19.758	-0.24516625	-0.0980664999999988	9.81645665
2026-05-02 12:18:19.995	-0.14709975	-0.1765196999999988	9.80665
2026-05-02 12:18:20.257	-0.18632635	-0.0882598499999988	9.87529655
2026-05-02 12:18:20.499	-0.24516625	-0.0784531999999988	9.8262633
2026-05-02 12:18:20.755	-0.196133	-0.22555294999999878	9.9047165
2026-05-02 12:18:20.997	-0.1372931	-0.0784531999999988	9.7870367
2026-05-02 12:18:21.258	-0.16671305	-0.0392265999999988	9.79684335
2026-05-02 12:18:21.496	-0.2549729	-0.24516624999999878	9.9635564
2026-05-02 12:18:21.760	-0.1372931	-0.0980664999999988	9.7674234
2026-05-02 12:18:21.997	-0.1372931	-0.0392265999999988	9.8262633
2026-05-02 12:18:22.256	-0.1765197	-0.22555294999999878	9.9243298
2026-05-02 12:18:22.496	-0.18632635	-0.1470997499999988	9.79684335
2026-05-02 12:18:22.756	-0.1176798	-0.009806649999998791	9.8654899
2026-05-02 12:18:22.997	-0.12748645	-0.1667130499999988	9.79684335
2026-05-02 12:18:23.262	-0.22555295	-0.23535959999999878	9.8458766
2026-05-02 12:18:23.496	-0.1569064	-0.009806649999998786	9.9243298
2026-05-02 12:18:23.755	-0.06864655	-0.1274864499999988	9.73800345
2026-05-02 12:18:23.997	-0.1765197	-0.19613299999999878	9.9047165
2026-05-02 12:18:24.258	-0.2353596	-0.09806649999999878	9.89490985
2026-05-02 12:18:24.497	-0.0588399	-0.08825984999999882	9.7281968
2026-05-02 12:18:24.754	-0.1176798	-0.17651969999999878	9.89490985
2026-05-02 12:18:24.994	-0.22555295	-0.1176797999999988	9.87529655
2026-05-02 12:18:25.257	-0.10787315	-0.1274864499999988	9.7870367
2026-05-02 12:18:25.497	-0.0784532	-0.1274864499999988	9.8262633
2026-05-02 12:18:25.755	-0.20593965	-0.12748644999999878	9.89490985
2026-05-02 12:18:25.996	-0.1372931	-0.1569063999999988	9.83606995
2026-05-02 12:18:26.258	-0.06864655	-0.1078731499999988	9.77723005
2026-05-02 12:18:26.496	-0.1765197	-0.13729309999999878	9.9243298
2026-05-02 12:18:26.759	-0.1176798	-0.1667130499999988	9.80665
2026-05-02 12:18:26.997	-0.1372931	-0.1274864499999988	9.8262633
2026-05-02 12:18:27.261	-0.1372931	-0.0784531999999988	9.8851032
2026-05-02 12:18:27.496	-0.08825985	-0.1961329999999988	9.79684335
2026-05-02 12:18:27.754	-0.14709975	-0.14709974999999878	9.9047165
2026-05-02 12:18:27.996	-0.1372931	-0.1274864499999988	9.7870367
2026-05-02 12:18:28.258	-0.1176798	-0.1372930999999988	9.8458766
2026-05-02 12:18:28.503	-0.12748645	-0.14709974999999878	9.89490985
2026-05-02 12:18:28.755	-0.0980665	-0.1863263499999988	9.7674234
2026-05-02 12:18:29.002	-0.12748645	-0.1176797999999988	9.85568325
2026-05-02 12:18:29.257	-0.1372931	-0.1078731499999988	9.8851032
2026-05-02 12:18:29.497	-0.0784532	-0.2353595999999988	9.7870367
2026-05-02 12:18:29.756	-0.0980665	-0.14709974999999878	9.89490985
2026-05-02 12:18:29.994	-0.10787315	-0.0784531999999988	9.8262633
2026-05-02 12:18:30.260	-0.10787315	-0.17651969999999878	9.81645665
2026-05-02 12:18:30.499	-0.12748645	-0.21574629999999878	9.8851032
2026-05-02 12:18:30.764	-0.10787315	-0.05883989999999879	9.85568325
2026-05-02 12:18:30.998	-0.02941995	-0.1569063999999988	9.7674234
2026-05-02 12:18:31.257	-0.1372931	-0.22555294999999878	9.93413645
2026-05-02 12:18:31.496	-0.10787315	-0.0980664999999988	9.7870367
2026-05-02 12:18:31.756	-0.04903325	-0.1372930999999988	9.85568325
2026-05-02 12:18:31.996	-0.06864655	-0.1470997499999988	9.8262633
2026-05-02 12:18:32.256	-0.0784532	-0.1078731499999988	9.80665
2026-05-02 12:18:32.497	-0.1372931	-0.17651969999999878	9.9439431
2026-05-02 12:18:32.754	-0.04903325	-0.1274864499999988	9.7674234
2026-05-02 12:18:32.994	-0.10787315	-0.1274864499999988	9.8654899
2026-05-02 12:18:33.255	-0.14709975	-0.16671304999999878	9.8851032
2026-05-02 12:18:33.495	-0.08825985	-0.1765196999999988	9.7674234
2026-05-02 12:18:33.755	-0.0980665	-0.12748644999999878	9.93413645
2026-05-02 12:18:33.995	-0.08825985	-0.0882598499999988	9.75761675
2026-05-02 12:18:34.256	-0.0980665	-0.17651969999999878	9.8262633
2026-05-02 12:18:34.499	-0.1569064	-0.20593964999999878	9.9243298
2026-05-02 12:18:34.756	-0.0588399	-0.0392265999999988	9.7870367
2026-05-02 12:18:34.994	-0.0392266	-0.1176797999999988	9.80665
2026-05-02 12:18:35.257	-0.14709975	-0.2745861999999988	9.85568325
2026-05-02 12:18:35.494	-0.14709975	-0.1078731499999988	9.8851032
2026-05-02 12:18:35.758	-0.0588399	1.2069730945522684e-15	9.85568325
2026-05-02 12:18:35.996	-0.0588399	-0.2353595999999988	9.75761675
2026-05-02 12:18:36.254	-0.1569064	-0.22555294999999878	9.95374975
2026-05-02 12:18:36.494	-0.10787315	-0.0392265999999988	9.81645665
2026-05-02 12:18:36.760	-0.0588399	-0.1470997499999988	9.81645665
2026-05-02 12:18:36.997	-0.10787315	-0.2745861999999988	9.8654899
2026-05-02 12:18:37.258	-0.1176798	-0.0784531999999988	9.85568325
2026-05-02 12:18:37.496	-0.10787315	-0.17651969999999878	9.85568325
2026-05-02 12:18:37.755	-0.0784532	-0.1863263499999988	9.80665
2026-05-02 12:18:37.997	-0.16671305	-0.1274864499999988	9.8654899
2026-05-02 12:18:38.260	-0.12748645	-0.17651969999999878	9.83606995
2026-05-02 12:18:38.507	-0.08825985	-0.1470997499999988	9.81645665
2026-05-02 12:18:38.763	-0.1372931	-0.17651969999999878	9.9047165
2026-05-02 12:18:38.994	-0.0784532	-0.2647795499999988	9.73800345
2026-05-02 12:18:39.258	-0.1176798	-0.0686465499999988	9.83606995
2026-05-02 12:18:39.496	-0.14709975	-0.20593964999999878	9.9635564
2026-05-02 12:18:39.784	-0.0392266	-0.2451662499999988	9.7085835
2026-05-02 12:18:39.994	-0.1176798	-0.05883989999999879	9.85568325
2026-05-02 12:18:40.258	-0.16671305	-0.15690639999999878	9.97336305
2026-05-02 12:18:40.496	-0.0588399	-0.1863263499999988	9.7281968
2026-05-02 12:18:40.761	-0.0784532	-0.12748644999999878	9.89490985
2026-05-02 12:18:40.999	-0.1569064	-0.19613299999999878	9.85568325
2026-05-02 12:18:41.254	-0.12748645	-0.0980664999999988	9.80665
2026-05-02 12:18:41.493	-0.0588399	-0.17651969999999878	9.89490985
2026-05-02 12:18:41.755	-0.0980665	-0.1470997499999988	9.81645665
2026-05-02 12:18:41.995	-0.1372931	-0.1176797999999988	9.8851032
2026-05-02 12:18:42.257	-0.0784532	-0.1765196999999988	9.80665
2026-05-02 12:18:42.497	-0.1569064	-0.21574629999999878	9.87529655
2026-05-02 12:18:42.759	-0.12748645	-0.0882598499999988	9.8458766
2026-05-02 12:18:43.001	-0.0980665	-0.1569063999999988	9.81645665
2026-05-02 12:18:43.262	-0.16671305	-0.23535959999999878	9.89490985
2026-05-02 12:18:43.494	-0.0588399	-0.0392265999999988	9.7870367
2026-05-02 12:18:43.760	-0.1176798	-0.1569063999999988	9.7870367
2026-05-02 12:18:43.996	-0.24516625	-0.23535959999999878	9.93413645
2026-05-02 12:18:44.256	-0.22555295	-0.1470997499999988	9.75761675
2026-05-02 12:18:44.504	-0.38245935	-0.2647795499999988	9.87529655
2026-05-02 12:18:44.755	-0.4511059	-0.1176797999999988	9.87529655
2026-05-02 12:18:44.998	-0.34323275	-0.18632634999999878	9.81645665
2026-05-02 12:18:45.257	-0.24516625	-0.3040061499999988	9.83606995
2026-05-02 12:18:45.493	-0.32361945000000003	-0.2255529499999988	9.7870367
2026-05-02 12:18:45.756	-0.4118793	-0.3628460499999988	9.85568325
2026-05-02 12:18:46.007	-0.392266	-0.3040061499999988	9.8262633
2026-05-02 12:18:46.257	-0.28439285000000003	-0.1470997499999988	9.8262633
2026-05-02 12:18:46.496	-0.2353596	-0.3040061499999988	9.79684335
2026-05-02 12:18:46.756	-0.28439285000000003	-0.3040061499999988	9.8262633
2026-05-02 12:18:46.995	-0.2941995	-0.18632634999999878	9.8851032
2026-05-02 12:18:47.255	-0.2353596	-0.20593964999999878	9.81645665
2026-05-02 12:18:47.498	-0.2353596	-0.27458619999999884	9.79684335
2026-05-02 12:18:47.755	-0.34323275	-0.2647795499999988	9.8851032
2026-05-02 12:18:47.996	-0.26477955	-0.17651969999999878	9.81645665
2026-05-02 12:18:48.257	-0.2353596	-0.19613299999999878	9.8654899
2026-05-02 12:18:48.494	-0.2549729	-0.2549728999999988	9.83606995
2026-05-02 12:18:48.753	-0.2549729	-0.0784531999999988	9.79684335
2026-05-02 12:18:48.996	-0.3138128	-0.16671304999999878	9.9047165
2026-05-02 12:18:49.258	-0.32361945000000003	-0.0980664999999988	9.81645665
2026-05-02 12:18:49.494	-0.2353596	-0.04903324999999879	9.85568325
2026-05-02 12:18:49.761	-0.1176798	-0.20593964999999878	9.81645665
2026-05-02 12:18:50.001	-0.16671305	-0.20593964999999878	9.83606995
2026-05-02 12:18:50.254	-0.2157463	-0.16671304999999878	9.87529655
2026-05-02 12:18:50.494	-0.196133	-0.1176797999999988	9.87529655
2026-05-02 12:18:50.754	-0.00980665	-0.0588398999999988	9.79684335
2026-05-02 12:18:50.993	0.0	-0.0588398999999988	9.8262633
2026-05-02 12:18:51.255	-0.1372931	-0.1569063999999988	9.87529655
2026-05-02 12:18:51.494	-0.0392266	-0.17651969999999878	9.89490985
2026-05-02 12:18:51.753	0.1176798	-0.1078731499999988	9.75761675
2026-05-02 12:18:51.996	-0.00980665	-0.21574629999999878	9.8458766
2026-05-02 12:18:52.257	-0.08825985	-0.21574629999999878	9.9047165
2026-05-02 12:18:52.499	-0.00980665	-0.0490332499999988	9.8262633
2026-05-02 12:18:52.754	0.0	-0.18632634999999878	9.83606995
2026-05-02 12:18:52.994	-0.12748645	-0.2843928499999988	9.83606995
2026-05-02 12:18:53.255	-0.196133	-0.009806649999998798	9.81645665
2026-05-02 12:18:53.493	-0.2157463	-0.12748644999999878	9.9047165
2026-05-02 12:18:53.753	-0.196133	-0.2059396499999988	9.80665
2026-05-02 12:18:53.996	-0.1765197	0.009806650000001204	9.83606995
2026-05-02 12:18:54.258	-0.196133	-0.1274864499999988	9.8851032
2026-05-02 12:18:54.493	-0.1765197	-0.2059396499999988	9.80665
2026-05-02 12:18:54.755	-0.16671305	0.02941995000000121	9.8851032
2026-05-02 12:18:54.994	-0.1176798	-0.1176797999999988	9.80665
2026-05-02 12:18:55.257	-0.1569064	-0.19613299999999878	9.8262633
2026-05-02 12:18:55.497	-0.1765197	1.2117769675654117e-15	9.89490985
2026-05-02 12:18:55.757	-0.14709975	-0.0588398999999988	9.8262633
2026-05-02 12:18:55.997	-0.1176798	-0.19613299999999878	9.81645665
2026-05-02 12:18:56.257	-0.1569064	-0.0784531999999988	9.8654899
2026-05-02 12:18:56.496	-0.18632635	-0.009806649999998791	9.8654899
2026-05-02 12:18:56.755	-0.0588399	-0.19613299999999878	9.8262633
2026-05-02 12:18:56.996	-0.0588399	-0.16671304999999878	9.8262633
2026-05-02 12:18:57.259	-0.1569064	-0.02941994999999879	9.87529655
2026-05-02 12:18:57.496	-0.14709975	-0.1470997499999988	9.8458766
2026-05-02 12:18:57.754	-0.10787315	-0.1372930999999988	9.79684335
2026-05-02 12:18:58.002	-0.18632635	-0.0882598499999988	9.85568325
2026-05-02 12:18:58.256	-0.196133	-0.1078731499999988	9.83606995
2026-05-02 12:18:58.496	-0.1569064	-0.0882598499999988	9.8458766
2026-05-02 12:18:58.754	-0.1176798	-0.1569063999999988	9.81645665
2026-05-02 12:18:58.997	-0.18632635	-0.029419949999998793	9.8458766
2026-05-02 12:18:59.256	-0.24516625	-0.10787314999999878	9.91452315
2026-05-02 12:18:59.494	-0.00980665	-0.2157462999999988	9.7478101
2026-05-02 12:18:59.757	-0.0392266	-0.1176797999999988	9.8654899
2026-05-02 12:18:59.997	-0.12748645	-0.1372930999999988	9.8654899
2026-05-02 12:19:00.254	-0.14709975	-0.2647795499999988	9.81645665
2026-05-02 12:19:00.498	-0.14709975	-0.0784531999999988	9.87529655
2026-05-02 12:19:00.756	-0.196133	-0.0686465499999988	9.83606995
2026-05-02 12:19:00.998	-0.2157463	-0.22555294999999878	9.83606995
2026-05-02 12:19:01.257	-0.26477955	-0.1569063999999988	9.8654899
2026-05-02 12:19:01.494	-0.18632635	-0.029419949999998803	9.77723005
2026-05-02 12:19:01.754	-0.196133	-0.1470997499999988	9.8654899
2026-05-02 12:19:01.996	-0.26477955	-0.22555294999999878	9.89490985
2026-05-02 12:19:02.261	-0.18632635	-0.0686465499999988	9.7870367
2026-05-02 12:19:02.498	-0.1569064	-0.04903324999999879	9.8654899
2026-05-02 12:19:02.755	-0.2157463	-0.19613299999999878	9.8458766
2026-05-02 12:19:02.993	-0.22555295	-0.16671304999999878	9.8458766
2026-05-02 12:19:03.257	-0.14709975	1.2057721262989826e-15	9.8458766
2026-05-02 12:19:03.496	-0.14709975	-0.1765196999999988	9.80665
2026-05-02 12:19:03.760	-0.2549729	-0.17651969999999878	9.8851032
2026-05-02 12:19:03.996	-0.14709975	-0.0392265999999988	9.81645665
2026-05-02 12:19:04.257	-0.1176798	-0.1372930999999988	9.8458766
2026-05-02 12:19:04.494	-0.2157463	-0.1470997499999988	9.80665
2026-05-02 12:19:04.760	-0.2157463	-0.0882598499999988	9.87529655
2026-05-02 12:19:04.994	-0.10787315	-0.1176797999999988	9.8262633
2026-05-02 12:19:05.255	-0.12748645	-0.1274864499999988	9.80665
2026-05-02 12:19:05.496	-0.2549729	-0.11767979999999878	9.9243298
2026-05-02 12:19:05.756	-0.1765197	-0.1274864499999988	9.75761675
2026-05-02 12:19:05.997	-0.0980665	-0.05883989999999879	9.85568325
2026-05-02 12:19:06.258	-0.1569064	-0.18632634999999878	9.8654899
2026-05-02 12:19:06.497	-0.22555295	-0.1078731499999988	9.83606995
2026-05-02 12:19:06.759	-0.16671305	-0.0490332499999988	9.8458766
2026-05-02 12:19:06.999	-0.1176798	-0.18632634999999878	9.81645665
2026-05-02 12:19:07.254	-0.1765197	-0.1078731499999988	9.83606995
2026-05-02 12:19:07.498	-0.196133	-0.05883989999999879	9.87529655
2026-05-02 12:19:07.759	-0.14709975	-0.1569063999999988	9.8262633
2026-05-02 12:19:07.997	-0.14709975	-0.1176797999999988	9.81645665
2026-05-02 12:19:08.255	-0.1765197	-0.0686465499999988	9.8851032
2026-05-02 12:19:08.494	-0.1569064	-0.1372930999999988	9.80665
2026-05-02 12:19:08.753	-0.16671305	-0.11767979999999878	9.89490985
2026-05-02 12:19:08.994	-0.1372931	-0.1176797999999988	9.80665
2026-05-02 12:19:09.257	-0.16671305	-0.0882598499999988	9.8262633
2026-05-02 12:19:09.499	-0.18632635	-0.15690639999999878	9.9047165
2026-05-02 12:19:09.752	-0.14709975	-0.0980664999999988	9.7870367
2026-05-02 12:19:09.998	-0.1372931	-0.1078731499999988	9.8458766
2026-05-02 12:19:10.253	-0.1765197	-0.1569063999999988	9.85568325
2026-05-02 12:19:10.494	-0.18632635	-0.0686465499999988	9.83606995
2026-05-02 12:19:10.753	-0.14709975	-0.1078731499999988	9.85568325
2026-05-02 12:19:11.004	-0.1765197	-0.1372930999999988	9.83606995
2026-05-02 12:19:11.256	-0.20593965	-0.1176797999999988	9.80665
2026-05-02 12:19:11.494	-0.1765197	-0.05883989999999879	9.91452315
2026-05-02 12:19:11.754	-0.12748645	-0.1176797999999988	9.7674234
2026-05-02 12:19:11.993	-0.2157463	-0.17651969999999878	9.8654899
2026-05-02 12:19:12.256	-0.18632635	-0.01961329999999879	9.8851032
2026-05-02 12:19:12.496	-0.12748645	-0.1569063999999988	9.7674234
2026-05-02 12:19:12.754	-0.20593965	-0.16671304999999878	9.8851032
2026-05-02 12:19:12.996	-0.16671305	-0.0294199499999988	9.8262633
2026-05-02 12:19:13.257	-0.14709975	-0.1176797999999988	9.80665
2026-05-02 12:19:13.496	-0.18632635	-0.17651969999999878	9.9047165
2026-05-02 12:19:13.754	-0.18632635	-0.0392265999999988	9.81645665
2026-05-02 12:19:13.997	-0.1765197	-0.1078731499999988	9.8458766
2026-05-02 12:19:14.256	-0.1372931	-0.1569063999999988	9.83606995
2026-05-02 12:19:14.494	-0.16671305	-0.0686465499999988	9.83606995
2026-05-02 12:19:14.755	-0.18632635	-0.10787314999999878	9.9047165
2026-05-02 12:19:14.994	-0.18632635	-0.1372930999999988	9.7870367
2026-05-02 12:19:15.258	-0.16671305	-0.0980664999999988	9.85568325
2026-05-02 12:19:15.497	-0.10787315	-0.0980664999999988	9.8262633
2026-05-02 12:19:15.757	-0.18632635	-0.1372930999999988	9.8458766
2026-05-02 12:19:15.996	-0.2157463	-0.09806649999999878	9.9047165
2026-05-02 12:19:16.256	-0.1176798	-0.09806649999999882	9.73800345
2026-05-02 12:19:16.496	-0.1372931	-0.13729309999999878	9.91452315
2026-05-02 12:19:16.754	-0.12748645	-0.1274864499999988	9.81645665
2026-05-02 12:19:16.996	-0.14709975	-0.1078731499999988	9.8262633
2026-05-02 12:19:17.257	-0.18632635	-0.08825984999999878	9.93413645
2026-05-02 12:19:17.502	-0.10787315	-0.1667130499999988	9.7674234
2026-05-02 12:19:17.754	-0.1176798	-0.1078731499999988	9.83606995
2026-05-02 12:19:17.996	-0.2157463	-0.0686465499999988	9.9047165
2026-05-02 12:19:18.262	-0.14709975	-0.1470997499999988	9.80665
2026-05-02 12:19:18.496	-0.0980665	-0.1569063999999988	9.8262633
2026-05-02 12:19:18.764	-0.16671305	-0.04903324999999879	9.87529655
2026-05-02 12:19:18.995	-0.196133	-0.1078731499999988	9.8458766
2026-05-02 12:19:19.257	-0.1372931	-0.18632634999999878	9.83606995
2026-05-02 12:19:19.494	-0.0980665	-0.0882598499999988	9.80665
2026-05-02 12:19:19.758	-0.20593965	-0.0784531999999988	9.8654899
2026-05-02 12:19:19.994	-0.16671305	-0.1372930999999988	9.8851032
2026-05-02 12:19:20.257	-0.0784532	-0.1372930999999988	9.7674234
2026-05-02 12:19:20.496	-0.18632635	-0.0686465499999988	9.8851032
2026-05-02 12:19:20.758	-0.2157463	-0.13729309999999878	9.9243298
2026-05-02 12:19:20.996	-0.0980665	-0.11767979999999882	9.7281968
2026-05-02 12:19:21.257	-0.1176798	-0.1176797999999988	9.8654899
2026-05-02 12:19:21.498	-0.196133	-0.1176797999999988	9.87529655
2026-05-02 12:19:21.755	-0.16671305	-0.0980664999999988	9.8458766
2026-05-02 12:19:21.996	-0.10787315	-0.1176797999999988	9.80665
2026-05-02 12:19:22.256	-0.1372931	-0.1470997499999988	9.79684335
2026-05-02 12:19:22.496	-0.2157463	-0.08825984999999878	9.9439431
2026-05-02 12:19:22.765	-0.10787315	-0.0882598499999988	9.80665
2026-05-02 12:19:22.999	-0.10787315	-0.1470997499999988	9.79684335
2026-05-02 12:19:23.256	-0.24516625	-0.13729309999999878	9.9243298
2026-05-02 12:19:23.496	-0.1372931	-0.0490332499999988	9.80665
2026-05-02 12:19:23.754	-0.0588399	-0.1274864499999988	9.80665
2026-05-02 12:19:23.996	-0.20593965	-0.1470997499999988	9.87529655
2026-05-02 12:19:24.257	-0.196133	-0.0784531999999988	9.81645665
2026-05-02 12:19:24.494	-0.1176798	-0.09806649999999878	9.91452315
2026-05-02 12:19:24.755	-0.0980665	-0.1470997499999988	9.75761675
2026-05-02 12:19:24.994	-0.20593965	-0.0980664999999988	9.85568325
2026-05-02 12:19:25.257	-0.20593965	-0.11767979999999878	9.97336305
2026-05-02 12:19:25.497	-0.06864655	-0.11767979999999882	9.69877685
2026-05-02 12:19:25.754	-0.1372931	-0.0784531999999988	9.8851032
2026-05-02 12:19:25.996	-0.22555295	-0.15690639999999878	9.89490985
2026-05-02 12:19:26.261	-0.12748645	-0.1274864499999988	9.77723005
2026-05-02 12:19:26.496	-0.10787315	-0.04903324999999879	9.85568325
2026-05-02 12:19:26.755	-0.1765197	-0.16671304999999878	9.85568325
2026-05-02 12:19:26.995	-0.1569064	-0.1176797999999988	9.83606995
2026-05-02 12:19:27.256	-0.14709975	-0.05883989999999879	9.8654899
2026-05-02 12:19:27.496	-0.14709975	-0.1667130499999988	9.79684335
2026-05-02 12:19:27.755	-0.14709975	-0.1176797999999988	9.8458766
2026-05-02 12:19:28.002	-0.16671305	-0.0686465499999988	9.89490985
2026-05-02 12:19:28.256	-0.12748645	-0.1372930999999988	9.77723005
2026-05-02 12:19:28.497	-0.1569064	-0.1372930999999988	9.87529655
2026-05-02 12:19:28.754	-0.1765197	-0.0686465499999988	9.87529655
2026-05-02 12:19:28.996	-0.1176798	-0.1078731499999988	9.79684335
2026-05-02 12:19:29.256	-0.1372931	-0.16671304999999878	9.8458766
2026-05-02 12:19:29.493	-0.196133	-0.0784531999999988	9.8654899
2026-05-02 12:19:29.756	-0.14709975	-0.0882598499999988	9.83606995
2026-05-02 12:19:29.994	-0.1176798	-0.1569063999999988	9.8262633
2026-05-02 12:19:30.262	-0.14709975	-0.0882598499999988	9.80665
2026-05-02 12:19:30.493	-0.20593965	-0.12748644999999878	9.91452315
2026-05-02 12:19:30.752	-0.12748645	-0.0882598499999988	9.80665
2026-05-02 12:19:30.996	-0.1372931	-0.1372930999999988	9.80665
2026-05-02 12:19:31.257	-0.1765197	-0.11767979999999878	9.89490985
2026-05-02 12:19:31.495	-0.14709975	-0.0980664999999988	9.83606995
2026-05-02 12:19:31.754	-0.12748645	-0.1078731499999988	9.8262633
2026-05-02 12:19:31.995	-0.1765197	-0.1372930999999988	9.8654899
2026-05-02 12:19:32.257	-0.16671305	-0.1078731499999988	9.81645665
2026-05-02 12:19:32.495	-0.12748645	-0.0882598499999988	9.87529655
2026-05-02 12:19:32.761	-0.14709975	-0.1176797999999988	9.83606995
2026-05-02 12:19:32.997	-0.1569064	-0.1569063999999988	9.81645665
2026-05-02 12:19:33.258	-0.1569064	-0.09806649999999878	9.89490985
2026-05-02 12:19:33.495	-0.1569064	-0.0588398999999988	9.81645665
2026-05-02 12:19:33.753	-0.1372931	-0.17651969999999878	9.83606995
2026-05-02 12:19:33.995	-0.14709975	-0.1372930999999988	9.85568325
2026-05-02 12:19:34.256	-0.1765197	-0.0294199499999988	9.8262633
2026-05-02 12:19:34.493	-0.1569064	-0.1372930999999988	9.87529655
2026-05-02 12:19:34.755	-0.1372931	-0.1863263499999988	9.7870367
2026-05-02 12:19:34.994	-0.1569064	-0.03922659999999879	9.89490985
2026-05-02 12:19:35.257	-0.1569064	-0.1078731499999988	9.8262633
2026-05-02 12:19:35.496	-0.14709975	-0.16671304999999878	9.83606995
2026-05-02 12:19:35.762	-0.18632635	-0.08825984999999878	9.9047165
2026-05-02 12:19:35.996	-0.12748645	-0.07845319999999881	9.7674234
2026-05-02 12:19:36.258	-0.12748645	-0.15690639999999878	9.89490985
2026-05-02 12:19:36.495	-0.18632635	-0.0980664999999988	9.8262633
2026-05-02 12:19:36.754	-0.1765197	-0.1078731499999988	9.85568325
2026-05-02 12:19:36.996	-0.10787315	-0.1274864499999988	9.83606995
2026-05-02 12:19:37.256	-0.14709975	-0.1078731499999988	9.77723005
2026-05-02 12:19:37.495	-0.22555295	-0.09806649999999878	9.9243298
2026-05-02 12:19:37.755	-0.1176798	-0.1176797999999988	9.79684335
2026-05-02 12:19:37.998	-0.1176798	-0.1176797999999988	9.8262633
2026-05-02 12:19:38.256	-0.20593965	-0.1078731499999988	9.87529655
2026-05-02 12:19:38.495	-0.1765197	-0.0882598499999988	9.81645665
2026-05-02 12:19:38.755	-0.1176798	-0.1470997499999988	9.8654899
2026-05-02 12:19:38.995	-0.12748645	-0.1274864499999988	9.7870367
2026-05-02 12:19:39.255	-0.1765197	-0.04903324999999879	9.8654899
2026-05-02 12:19:39.493	-0.196133	-0.13729309999999878	9.89490985
2026-05-02 12:19:39.754	-0.10787315	-0.1569063999999988	9.7674234
2026-05-02 12:19:39.994	-0.1176798	-0.05883989999999879	9.87529655
2026-05-02 12:19:40.258	-0.20593965	-0.1176797999999988	9.8458766
2026-05-02 12:19:40.497	-0.1765197	-0.1176797999999988	9.8851032
2026-05-02 12:19:40.762	-0.08825985	-0.1078731499999988	9.80665
2026-05-02 12:19:40.996	-0.1569064	-0.0980664999999988	9.81645665
2026-05-02 12:19:41.256	-0.20593965	-0.1372930999999988	9.8851032
2026-05-02 12:19:41.495	-0.1372931	-0.1078731499999988	9.8458766
2026-05-02 12:19:41.755	-0.1176798	-0.0882598499999988	9.8262633
2026-05-02 12:19:41.993	-0.1765197	-0.1372930999999988	9.81645665
2026-05-02 12:19:42.263	-0.1765197	-0.1176797999999988	9.8851032
2026-05-02 12:19:42.502	-0.1372931	-0.1078731499999988	9.8262633
2026-05-02 12:19:42.755	-0.1372931	-0.0980664999999988	9.8458766
2026-05-02 12:19:43.005	-0.16671305	-0.1372930999999988	9.83606995
2026-05-02 12:19:43.256	-0.1765197	-0.1274864499999988	9.85568325
2026-05-02 12:19:43.495	-0.14709975	-0.0588398999999988	9.8458766
2026-05-02 12:19:43.756	-0.14709975	-0.1274864499999988	9.8262633
2026-05-02 12:19:44.001	-0.1569064	-0.1470997499999988	9.8851032
2026-05-02 12:19:44.256	-0.12748645	-0.0882598499999988	9.79684335
2026-05-02 12:19:44.493	-0.20593965	-0.0784531999999988	9.87529655
2026-05-02 12:19:44.754	-0.16671305	-0.17651969999999878	9.85568325
2026-05-02 12:19:44.993	-0.0784532	-0.0686465499999988	9.8262633
2026-05-02 12:19:45.256	-0.16671305	-0.1078731499999988	9.83606995
2026-05-02 12:19:45.495	-0.24516625	-0.1274864499999988	9.87529655
2026-05-02 12:19:45.758	-0.12748645	-0.0980664999999988	9.8654899
2026-05-02 12:19:45.996	-0.0588399	-0.1470997499999988	9.7478101
2026-05-02 12:19:46.256	-0.2157463	-0.0784531999999988	9.89490985
2026-05-02 12:19:46.495	-0.2549729	-0.10787314999999878	9.91452315
2026-05-02 12:19:46.760	-0.0784532	-0.1765196999999988	9.7478101
2026-05-02 12:19:47.003	-0.06864655	-0.0784531999999988	9.81645665
2026-05-02 12:19:47.257	-0.24516625	-0.0784531999999988	9.9047165
2026-05-02 12:19:47.495	-0.2157463	-0.1569063999999988	9.8851032
2026-05-02 12:19:47.754	-0.02941995	-0.1372930999999988	9.73800345
2026-05-02 12:19:47.996	-0.1372931	-0.0490332499999988	9.8458766
2026-05-02 12:19:48.260	-0.26477955	-0.10787314999999878	9.9439431
2026-05-02 12:19:48.495	-0.12748645	-0.1863263499999988	9.77723005
2026-05-02 12:19:48.756	-0.0588399	-0.0490332499999988	9.8262633
2026-05-02 12:19:48.995	-0.196133	-0.1176797999999988	9.85568325
2026-05-02 12:19:49.259	-0.2157463	-0.1470997499999988	9.8851032
2026-05-02 12:19:49.493	-0.10787315	-0.0980664999999988	9.81645665
2026-05-02 12:19:49.755	-0.1176798	-0.0980664999999988	9.80665
2026-05-02 12:19:49.995	-0.20593965	-0.11767979999999878	9.91452315
2026-05-02 12:19:50.256	-0.16671305	-0.1078731499999988	9.80665
2026-05-02 12:19:50.495	-0.1372931	-0.1372930999999988	9.81645665
2026-05-02 12:19:50.752	-0.1569064	-0.0882598499999988	9.8851032
2026-05-02 12:19:50.996	-0.18632635	-0.0980664999999988	9.83606995
2026-05-02 12:19:51.256	-0.1372931	-0.17651969999999878	9.8262633
2026-05-02 12:19:51.496	-0.22555295	-0.0784531999999988	9.87529655
2026-05-02 12:19:51.756	-0.16671305	-0.0980664999999988	9.79684335
2026-05-02 12:19:51.999	-0.24516625	-0.1470997499999988	9.8851032
2026-05-02 12:19:52.261	-0.2549729	-0.1274864499999988	9.83606995
2026-05-02 12:19:52.495	-0.196133	-0.1176797999999988	9.8262633
2026-05-02 12:19:52.755	-0.2353596	-0.04903324999999879	9.8654899
2026-05-02 12:19:52.995	-0.20593965	-0.1078731499999988	9.81645665
2026-05-02 12:19:53.256	-0.2549729	-0.1274864499999988	9.87529655
2026-05-02 12:19:53.496	-0.1176798	1.2045711580456967e-15	9.83606995
2026-05-02 12:19:53.755	-0.0980665	-0.0490332499999988	9.7870367
2026-05-02 12:19:53.996	-0.14709975	-0.1078731499999988	9.8851032
2026-05-02 12:19:54.253	-0.06864655	-0.029419949999998793	9.83606995
2026-05-02 12:19:54.493	-0.10787315	-0.0490332499999988	9.8458766
2026-05-02 12:19:54.756	-0.0980665	-0.1176797999999988	9.85568325
2026-05-02 12:19:54.996	-0.02941995	-0.0490332499999988	9.81645665
2026-05-02 12:19:55.256	0.0196133	-0.0686465499999988	9.83606995
2026-05-02 12:19:55.497	-0.02941995	-0.1274864499999988	9.87529655
2026-05-02 12:19:55.755	-0.12748645	-0.0490332499999988	9.81645665
2026-05-02 12:19:56.004	0.0	-0.0980664999999988	9.8458766
2026-05-02 12:19:56.256	-0.02941995	-0.1176797999999988	9.85568325
2026-05-02 12:19:56.495	-0.00980665	-0.0784531999999988	9.8262633
2026-05-02 12:19:56.760	0.0	-0.1274864499999988	9.87529655
2026-05-02 12:19:56.995	-0.0588399	-0.0588398999999988	9.81645665
2026-05-02 12:19:57.256	-0.1176798	-0.1078731499999988	9.8458766
2026-05-02 12:19:57.497	-0.02941995	-0.1372930999999988	9.83606995
2026-05-02 12:19:57.755	-0.24516625	-0.05883989999999879	9.85568325
2026-05-02 12:19:57.996	-0.1176798	-0.05883989999999879	9.8654899
2026-05-02 12:19:58.264	-0.0784532	-0.1274864499999988	9.80665
2026-05-02 12:19:58.495	-0.2353596	-0.0980664999999988	9.87529655
2026-05-02 12:19:58.765	-0.06864655	-0.019613299999998793	9.87529655
2026-05-02 12:19:58.997	-0.00980665	-0.0980664999999988	9.8262633
2026-05-02 12:19:59.256	-0.0784532	-0.1372930999999988	9.85568325
2026-05-02 12:19:59.494	0.20593965	1.2045711580456967e-15	9.83606995
2026-05-02 12:19:59.761	0.12748645	-0.0980664999999988	9.85568325
2026-05-02 12:19:59.994	0.2549729	-0.0882598499999988	9.83606995
2026-05-02 12:20:00.255	0.24516625	-0.0882598499999988	9.8458766
2026-05-02 12:20:00.499	0.18632635	-0.0392265999999988	9.8262633
2026-05-02 12:20:00.754	0.14709975	-0.0980664999999988	9.85568325
2026-05-02 12:20:00.996	0.1176798	-0.1176797999999988	9.85568325
2026-05-02 12:20:01.257	0.06864655	-0.03922659999999879	9.8458766
2026-05-02 12:20:01.496	0.0196133	-0.0784531999999988	9.85568325
2026-05-02 12:20:01.755	-0.0392266	-0.1372930999999988	9.87529655
2026-05-02 12:20:01.995	0.06864655	-0.06864654999999881	9.77723005
2026-05-02 12:20:02.256	-0.04903325	-0.0686465499999988	9.9047165
2026-05-02 12:20:02.495	-0.02941995	-0.1176797999999988	9.81645665
2026-05-02 12:20:02.754	-0.00980665	-0.1078731499999988	9.8458766
2026-05-02 12:20:02.996	-0.0196133	-0.1176797999999988	9.83606995
2026-05-02 12:20:03.256	-0.0196133	-0.1372930999999988	9.81645665
2026-05-02 12:20:03.495	-0.06864655	-0.10787314999999878	9.89490985
2026-05-02 12:20:03.754	-0.0392266	-0.1569063999999988	9.79684335
2026-05-02 12:20:03.995	-0.06864655	-0.1274864499999988	9.85568325
2026-05-02 12:20:04.258	-0.02941995	-0.0980664999999988	9.85568325
2026-05-02 12:20:04.493	-0.0196133	-0.19613299999999878	9.85568325
2026-05-02 12:20:04.752	0.02941995	-0.1176797999999988	9.8458766
2026-05-02 12:20:04.993	0.12748645	-0.0686465499999988	9.8262633
2026-05-02 12:20:05.256	0.04903325	-0.1470997499999988	9.8262633
2026-05-02 12:20:05.497	0.04903325	-0.1274864499999988	9.8851032
2026-05-02 12:20:05.758	0.0588399	-0.0686465499999988	9.83606995
2026-05-02 12:20:05.997	0.04903325	-0.1569063999999988	9.81645665
2026-05-02 12:20:06.263	-0.0392266	-0.1470997499999988	9.8851032
2026-05-02 12:20:06.493	-0.00980665	-0.0392265999999988	9.80665
2026-05-02 12:20:06.754	0.0196133	-0.16671304999999878	9.85568325
2026-05-02 12:20:06.995	-0.02941995	-0.1372930999999988	9.8458766
2026-05-02 12:20:07.257	-0.04903325	-0.0588398999999988	9.8458766
2026-05-02 12:20:07.496	-0.04903325	-0.1470997499999988	9.85568325
2026-05-02 12:20:07.755	-0.02941995	-0.1470997499999988	9.7870367
2026-05-02 12:20:07.996	-0.0588399	-0.0686465499999988	9.8851032
2026-05-02 12:20:08.256	-0.08825985	-0.1078731499999988	9.87529655
2026-05-02 12:20:08.497	-0.06864655	-0.18632634999999878	9.81645665
2026-05-02 12:20:08.758	-0.06864655	-0.0784531999999988	9.85568325
2026-05-02 12:20:08.997	-0.0980665	-0.0882598499999988	9.79684335
2026-05-02 12:20:09.256	-0.0980665	-0.13729309999999878	9.89490985
2026-05-02 12:20:09.493	-0.0784532	-0.1372930999999988	9.81645665
2026-05-02 12:20:09.753	-0.16671305	-0.0490332499999988	9.8262633
2026-05-02 12:20:09.993	-0.1372931	-0.11767979999999878	9.89490985
2026-05-02 12:20:10.255	-0.0784532	-0.1470997499999988	9.75761675
2026-05-02 12:20:10.493	-0.14709975	-0.08825984999999878	9.89490985
2026-05-02 12:20:10.763	-0.1765197	-0.0490332499999988	9.8262633
2026-05-02 12:20:10.997	-0.0980665	-0.1470997499999988	9.87529655
2026-05-02 12:20:11.257	-0.0980665	-0.1078731499999988	9.83606995
2026-05-02 12:20:11.496	-0.14709975	-0.0882598499999988	9.80665
2026-05-02 12:20:11.766	-0.1372931	-0.0980664999999988	9.8851032
2026-05-02 12:20:11.993	-0.0980665	-0.0882598499999988	9.8262633
2026-05-02 12:20:12.256	-0.10787315	-0.1274864499999988	9.8262633
2026-05-02 12:20:12.495	-0.14709975	-0.0980664999999988	9.8851032
2026-05-02 12:20:12.754	-0.10787315	-0.0490332499999988	9.81645665
2026-05-02 12:20:12.997	-0.08825985	-0.1372930999999988	9.85568325
2026-05-02 12:20:13.256	-0.1176798	-0.1176797999999988	9.85568325
2026-05-02 12:20:13.496	-0.1372931	-0.0490332499999988	9.81645665
2026-05-02 12:20:13.756	-0.12748645	-0.1176797999999988	9.8851032
2026-05-02 12:20:13.995	-0.06864655	-0.0980664999999988	9.80665
2026-05-02 12:20:14.256	-0.06864655	-0.0980664999999988	9.8262633
2026-05-02 12:20:14.493	2.55953565	1.3140911000000015	11.6503002
2026-05-02 12:20:14.755	0.0588399	-0.30400614999999886	9.38496405
2026-05-02 12:20:14.994	0.6472389000000001	-0.5982056499999987	11.03248125
2026-05-02 12:20:15.257	0.00980665	-0.09806649999999885	9.3751574
2026-05-02 12:20:15.495	-0.2549729	-0.2941994999999987	10.179302700000001
2026-05-02 12:20:15.755	-0.2157463	-0.03922659999999879	9.8458766
2026-05-02 12:20:15.996	-0.0784532	-0.08825984999999882	9.639936950000001
2026-05-02 12:20:16.256	-0.20593965	-0.20593964999999875	10.16949605
2026-05-02 12:20:16.495	-0.14709975	-0.06864654999999883	9.551677100000001
2026-05-02 12:20:16.754	-0.14709975	-0.08825984999999878	9.95374975
2026-05-02 12:20:16.996	-0.12748645	-0.17651969999999878	9.8851032
2026-05-02 12:20:17.256	-0.16671305	-0.10787314999999882	9.6693569
2026-05-02 12:20:17.496	-0.20593965	-0.07845319999999878	10.05181625
2026-05-02 12:20:17.756	-0.0588399	-0.1372930999999988	9.65955025
2026-05-02 12:20:17.997	-0.1765197	-0.14709974999999878	9.9047165
2026-05-02 12:20:18.254	-0.22555295	-0.06864654999999878	9.9635564
2026-05-02 12:20:18.496	-0.10787315	-0.1372930999999988	9.67916355
2026-05-02 12:20:18.753	-0.10787315	-0.12748644999999878	9.95374975
2026-05-02 12:20:18.997	-0.1765197	-0.0882598499999988	9.80665
2026-05-02 12:20:19.256	-0.18632635	-0.1274864499999988	9.81645665
2026-05-02 12:20:19.494	-0.1372931	-0.1274864499999988	9.8654899
2026-05-02 12:20:19.756	-0.1176798	-0.0784531999999988	9.79684335
2026-05-02 12:20:19.994	-0.20593965	-0.11767979999999878	9.9243298
2026-05-02 12:20:20.256	-0.14709975	-0.1667130499999988	9.7870367
2026-05-02 12:20:20.495	-0.1176798	-0.0882598499999988	9.8458766
2026-05-02 12:20:20.754	-0.18632635	-0.0882598499999988	9.8851032
2026-05-02 12:20:20.993	-0.196133	-0.16671304999999878	9.81645665
2026-05-02 12:20:21.257	-0.10787315	-0.0980664999999988	9.8458766
2026-05-02 12:20:21.496	-0.1176798	-0.0980664999999988	9.85568325
2026-05-02 12:20:21.755	-0.22555295	-0.1176797999999988	9.85568325
2026-05-02 12:20:21.997	-0.16671305	-0.1372930999999988	9.83606995
2026-05-02 12:20:22.257	-0.08825985	-0.0980664999999988	9.83606995
2026-05-02 12:20:22.493	-0.16671305	-0.1078731499999988	9.85568325
2026-05-02 12:20:22.754	-0.20593965	-0.1176797999999988	9.8262633
2026-05-02 12:20:22.996	-0.1176798	-0.1470997499999988	9.8654899
2026-05-02 12:20:23.257	-0.14709975	-0.0784531999999988	9.8458766
2026-05-02 12:20:23.496	-0.196133	-0.1078731499999988	9.83606995
2026-05-02 12:20:23.755	-0.10787315	-0.1470997499999988	9.8458766
2026-05-02 12:20:23.995	-0.12748645	-0.1176797999999988	9.81645665
2026-05-02 12:20:24.255	-0.24516625	-0.0784531999999988	9.8851032
2026-05-02 12:20:24.493	-0.16671305	-0.1274864499999988	9.8458766
2026-05-02 12:20:24.754	-0.0392266	-0.1470997499999988	9.7870367
2026-05-02 12:20:24.994	-0.18632635	-0.0882598499999988	9.87529655
2026-05-02 12:20:25.257	-0.26477955	-0.08825984999999878	9.89490985
2026-05-02 12:20:25.496	-0.10787315	-0.1961329999999988	9.79684335
2026-05-02 12:20:25.754	-0.06864655	-0.0882598499999988	9.79684335
2026-05-02 12:20:25.995	-0.2157463	-0.05883989999999879	9.87529655
2026-05-02 12:20:26.256	-0.2157463	-0.17651969999999878	9.87529655
2026-05-02 12:20:26.495	-0.08825985	-0.1274864499999988	9.80665
2026-05-02 12:20:26.768	-0.12748645	-0.0686465499999988	9.80665
2026-05-02 12:20:26.996	-0.2157463	-0.1372930999999988	9.8851032
2026-05-02 12:20:27.256	-0.1569064	-0.1176797999999988	9.85568325
2026-05-02 12:20:27.495	-0.08825985	-0.0882598499999988	9.79684335
2026-05-02 12:20:27.759	-0.1765197	-0.1470997499999988	9.8458766
2026-05-02 12:20:27.995	-0.196133	-0.08825984999999878	9.89490985
2026-05-02 12:20:28.260	-0.1176798	-0.1176797999999988	9.7870367
2026-05-02 12:20:28.496	-0.1372931	-0.1569063999999988	9.8654899
2026-05-02 12:20:28.755	-0.18632635	-0.0490332499999988	9.8458766
2026-05-02 12:20:28.996	-0.14709975	-0.1274864499999988	9.8262633
2026-05-02 12:20:29.256	-0.1372931	-0.16671304999999878	9.85568325
2026-05-02 12:20:29.493	-0.1569064	-0.0686465499999988	9.8262633
2026-05-02 12:20:29.754	-0.16671305	-0.1078731499999988	9.8654899
2026-05-02 12:20:29.995	-0.14709975	-0.1569063999999988	9.81645665
2026-05-02 12:20:30.256	-0.1372931	-0.0980664999999988	9.8458766
2026-05-02 12:20:30.496	-0.1765197	-0.0882598499999988	9.85568325
2026-05-02 12:20:30.754	-0.1569064	-0.1569063999999988	9.79684335
2026-05-02 12:20:30.998	-0.1569064	-0.10787314999999878	9.89490985
2026-05-02 12:20:31.257	-0.12748645	-0.0588398999999988	9.81645665
2026-05-02 12:20:31.494	-0.14709975	-0.17651969999999878	9.83606995
2026-05-02 12:20:31.753	-0.196133	-0.1372930999999988	9.87529655
2026-05-02 12:20:31.995	-0.14709975	-0.0490332499999988	9.8262633
2026-05-02 12:20:32.258	-0.12748645	-0.1470997499999988	9.85568325
2026-05-02 12:20:32.493	-0.12748645	-0.1569063999999988	9.80665
2026-05-02 12:20:32.753	-0.196133	-0.0784531999999988	9.85568325
2026-05-02 12:20:32.996	-0.22555295	-0.08825984999999878	9.89490985
2026-05-02 12:20:33.256	-0.1176798	-0.1470997499999988	9.7674234
2026-05-02 12:20:33.497	-0.08825985	-0.0980664999999988	9.8262633
2026-05-02 12:20:33.754	-0.16671305	-0.0784531999999988	9.87529655
2026-05-02 12:20:34.001	-0.2353596	-0.1569063999999988	9.8458766
2026-05-02 12:20:34.255	-0.18632635	-0.0882598499999988	9.81645665
2026-05-02 12:20:34.495	-0.0980665	-0.0490332499999988	9.80665
2026-05-02 12:20:34.755	-0.20593965	-0.1372930999999988	9.8654899
2026-05-02 12:20:34.993	-0.20593965	-0.1372930999999988	9.87529655
2026-05-02 12:20:35.256	-0.0980665	-0.0784531999999988	9.79684335
2026-05-02 12:20:35.495	-0.14709975	-0.0882598499999988	9.8458766
2026-05-02 12:20:35.754	-0.22555295	-0.12748644999999878	9.89490985
2026-05-02 12:20:35.996	-0.0980665	-0.1372930999999988	9.79684335
2026-05-02 12:20:36.256	-0.1372931	-0.0686465499999988	9.8262633
2026-05-02 12:20:36.497	-0.196133	-0.0882598499999988	9.8851032
2026-05-02 12:20:36.754	-0.1569064	-0.1176797999999988	9.83606995
2026-05-02 12:20:36.995	-0.1176798	-0.0784531999999988	9.8262633
2026-05-02 12:20:37.256	-0.14709975	-0.04903324999999879	9.8654899
2026-05-02 12:20:37.495	-0.14709975	-0.1078731499999988	9.80665
2026-05-02 12:20:37.757	-0.18632635	-0.1274864499999988	9.8654899
2026-05-02 12:20:38.002	-0.14709975	-0.0882598499999988	9.8458766
2026-05-02 12:20:38.253	-0.10787315	-0.0294199499999988	9.8262633
2026-05-02 12:20:38.496	-0.1569064	-0.0784531999999988	9.8458766
2026-05-02 12:20:38.755	-0.20593965	-0.16671304999999878	9.85568325
2026-05-02 12:20:39.039	-0.12748645	-0.0784531999999988	9.8262633
2026-05-02 12:20:39.257	-0.1176798	-0.0686465499999988	9.80665
2026-05-02 12:20:39.493	-0.20593965	-0.1274864499999988	9.8851032
2026-05-02 12:20:39.756	-0.1765197	-0.1176797999999988	9.87529655
2026-05-02 12:20:39.994	-0.12748645	-0.1176797999999988	9.80665
2026-05-02 12:20:40.257	-0.16671305	-0.1274864499999988	9.83606995
2026-05-02 12:20:40.497	-0.16671305	-0.0784531999999988	9.85568325
2026-05-02 12:20:40.752	-0.1569064	-0.1176797999999988	9.8262633
2026-05-02 12:20:40.994	-0.1765197	-0.1274864499999988	9.83606995
2026-05-02 12:20:41.256	-0.1765197	-0.1078731499999988	9.8458766
2026-05-02 12:20:41.492	-0.1569064	-0.0980664999999988	9.83606995
2026-05-02 12:20:41.754	-0.14709975	-0.1078731499999988	9.83606995
2026-05-02 12:20:41.995	-0.16671305	-0.1372930999999988	9.8458766
2026-05-02 12:20:42.256	-0.1765197	-0.0784531999999988	9.85568325
2026-05-02 12:20:42.493	-0.16671305	-0.1176797999999988	9.83606995
2026-05-02 12:20:42.755	-0.1569064	-0.1372930999999988	9.8458766
2026-05-02 12:20:43.002	-0.0980665	-0.1078731499999988	9.80665
2026-05-02 12:20:43.254	-0.14709975	-0.1176797999999988	9.85568325
2026-05-02 12:20:43.494	-0.2157463	-0.0980664999999988	9.87529655
2026-05-02 12:20:43.752	-0.1176798	-0.1569063999999988	9.80665
2026-05-02 12:20:43.993	-0.0980665	-0.0980664999999988	9.8458766
2026-05-02 12:20:44.256	-0.2157463	-0.0980664999999988	9.85568325
2026-05-02 12:20:44.493	-0.18632635	-0.1372930999999988	9.85568325
