timestamp,acc_x,acc_y,acc_z
2026-03-26 15:51:51.618,0.0,0.0,0.0
2026-03-26 15:51:51.861,0.0,0.0,0.0
2026-03-26 15:51:52.135,0.0,0.0,0.0
2026-03-26 15:51:52.364,0.0,0.0,0.0
2026-03-26 15:51:52.618,-1.91229675,-0.1667130499999988,9.65955025
2026-03-26 15:51:52.862,-1.91229675,-0.1569063999999988,9.65955025
2026-03-26 15:51:53.118,-1.91229675,-0.1667130499999988,9.65955025
2026-03-26 15:51:53.364,-1.91229675,-0.1667130499999988,9.65955025
2026-03-26 15:51:53.618,-1.91229675,-0.1667130499999988,9.65955025
2026-03-26 15:51:53.859,-1.91229675,-0.1569063999999988,9.65955025
2026-03-26 15:51:54.119,-1.91229675,-0.1667130499999988,9.65955025
2026-03-26 15:51:54.363,-1.9024901,-0.1667130499999988,9.65955025
2026-03-26 15:51:54.618,-1.91229675,-0.1569063999999988,9.65955025
2026-03-26 15:51:54.861,-1.91229675,-0.1569063999999988,9.65955025
2026-03-26 15:51:55.118,-1.91229675,-0.1667130499999988,9.65955025
2026-03-26 15:51:55.358,-1.91229675,-0.1667130499999988,9.65955025
2026-03-26 15:51:55.618,-1.91229675,-0.1569063999999988,9.65955025
2026-03-26 15:51:55.859,-1.91229675,-0.1569063999999988,9.65955025
2026-03-26 15:51:56.118,-1.91229675,-0.1569063999999988,9.65955025
2026-03-26 15:51:56.358,-1.91229675,-0.1569063999999988,9.65955025
2026-03-26 15:51:56.619,-1.91229675,-0.1667130499999988,9.65955025
2026-03-26 15:51:56.858,-1.91229675,-0.1569063999999988,9.65955025
2026-03-26 15:51:57.121,-1.91229675,-0.1569063999999988,9.6693569
2026-03-26 15:51:57.364,-1.91229675,-0.1569063999999988,9.65955025
2026-03-26 15:51:57.619,-1.91229675,-0.1667130499999988,9.65955025
2026-03-26 15:51:57.859,-1.91229675,-0.1569063999999988,9.65955025
2026-03-26 15:51:58.117,-1.91229675,-0.1569063999999988,9.65955025
2026-03-26 15:51:58.357,-1.91229675,-0.1569063999999988,9.65955025
2026-03-26 15:51:58.619,-1.9024901,-0.1667130499999988,9.65955025
2026-03-26 15:51:58.860,-1.91229675,-0.1667130499999988,9.65955025
2026-03-26 15:51:59.119,-1.91229675,-0.1569063999999988,9.65955025
2026-03-26 15:51:59.370,-1.91229675,-0.1569063999999988,9.65955025
2026-03-26 15:51:59.617,-1.9024901,-0.1569063999999988,9.6693569
2026-03-26 15:51:59.857,-1.91229675,-0.1569063999999988,9.65955025
2026-03-26 15:52:00.122,-1.91229675,-0.1569063999999988,9.65955025
2026-03-26 15:52:00.374,-1.91229675,-0.1667130499999988,9.65955025
2026-03-26 15:52:00.622,-1.91229675,-0.1569063999999988,9.65955025
2026-03-26 15:52:00.858,-1.91229675,-0.1569063999999988,9.65955025
2026-03-26 15:52:01.117,-1.91229675,-0.1569063999999988,9.65955025
2026-03-26 15:52:01.361,-1.91229675,-0.1569063999999988,9.65955025
2026-03-26 15:52:01.618,-1.91229675,-0.1569063999999988,9.65955025
2026-03-26 15:52:01.860,-1.91229675,-0.1569063999999988,9.65955025
2026-03-26 15:52:02.118,-1.91229675,-0.1667130499999988,9.65955025
2026-03-26 15:52:02.361,-1.91229675,-0.1569063999999988,9.65955025
2026-03-26 15:52:05.126,-1.9024901,-0.1569063999999988,9.65955025
2026-03-26 15:52:06.901,-1.91229675,-0.1667130499999988,9.65955025
2026-03-26 15:52:07.972,-1.91229675,-0.1569063999999988,9.65955025
2026-03-26 15:52:09.366,-1.91229675,-0.1667130499999988,9.65955025
2026-03-26 15:52:09.613,-1.9024901,-0.1667130499999988,9.65955025
2026-03-26 15:52:09.626,-1.91229675,-0.1569063999999988,9.65955025
2026-03-26 15:52:09.649,-1.91229675,-0.1667130499999988,9.65955025
2026-03-26 15:52:09.685,-1.91229675,-0.1667130499999988,9.65955025
2026-03-26 15:52:09.709,-1.91229675,-0.1667130499999988,9.65955025
2026-03-26 15:52:09.716,-1.91229675,-0.1569063999999988,9.65955025
2026-03-26 15:52:09.720,-1.91229675,-0.1667130499999988,9.65955025
2026-03-26 15:52:09.722,-1.91229675,-0.1667130499999988,9.65955025
2026-03-26 15:52:09.859,-1.91229675,-0.1569063999999988,9.65955025
2026-03-26 15:52:10.118,-1.91229675,-0.1569063999999988,9.65955025
2026-03-26 15:52:10.362,-1.91229675,-0.1569063999999988,9.65955025
2026-03-26 15:52:10.633,-1.91229675,-0.1569063999999988,9.65955025
2026-03-26 15:52:10.858,-1.91229675,-0.1667130499999988,9.65955025
2026-03-26 15:52:11.117,-1.91229675,-0.1569063999999988,9.65955025
2026-03-26 15:52:11.358,-1.91229675,-0.1569063999999988,9.65955025
2026-03-26 15:52:11.623,-1.91229675,-0.1569063999999988,9.65955025
2026-03-26 15:52:11.862,-1.91229675,-0.1569063999999988,9.65955025
2026-03-26 15:52:12.117,-1.91229675,-0.1569063999999988,9.65955025
2026-03-26 15:52:12.358,-1.91229675,-0.1470997499999988,9.65955025
2026-03-26 15:52:12.623,-1.91229675,-0.1667130499999988,9.65955025
2026-03-26 15:52:12.858,-1.91229675,-0.1569063999999988,9.65955025
2026-03-26 15:52:13.118,-1.91229675,-0.1667130499999988,9.65955025
2026-03-26 15:52:13.359,-1.91229675,-0.1667130499999988,9.65955025
2026-03-26 15:52:13.618,-1.91229675,-0.1569063999999988,9.65955025
2026-03-26 15:52:13.858,-1.9024901,-0.1569063999999988,9.65955025
2026-03-26 15:52:14.119,-1.91229675,-0.1569063999999988,9.65955025
2026-03-26 15:52:14.357,-1.91229675,-0.1569063999999988,9.65955025
2026-03-26 15:52:14.624,-1.91229675,-0.1569063999999988,9.65955025
2026-03-26 15:52:14.859,-1.91229675,-0.1569063999999988,9.6693569
2026-03-26 15:52:15.118,-1.91229675,-0.1569063999999988,9.65955025
2026-03-26 15:52:15.361,-1.91229675,-0.1569063999999988,9.6693569
2026-03-26 15:52:15.620,-1.91229675,-0.1569063999999988,9.65955025
2026-03-26 15:52:15.859,-1.91229675,-0.1667130499999988,9.65955025
2026-03-26 15:52:16.118,-1.91229675,-0.1569063999999988,9.65955025
2026-03-26 15:52:16.357,-1.91229675,-0.1569063999999988,9.65955025
2026-03-26 15:52:16.620,-1.91229675,-0.1569063999999988,9.65955025
2026-03-26 15:52:16.859,-1.91229675,-0.1667130499999988,9.65955025
2026-03-26 15:52:17.119,-1.91229675,-0.1569063999999988,9.65955025
2026-03-26 15:52:17.358,-1.91229675,-0.1569063999999988,9.65955025
2026-03-26 15:52:17.619,-1.91229675,-0.1569063999999988,9.65955025
2026-03-26 15:52:17.858,-1.91229675,-0.1569063999999988,9.65955025
2026-03-26 15:52:18.117,-1.91229675,-0.1569063999999988,9.6693569
2026-03-26 15:52:18.365,-1.91229675,-0.1569063999999988,9.65955025
2026-03-26 15:52:18.620,-1.91229675,-0.1569063999999988,9.65955025
2026-03-26 15:52:18.858,-1.91229675,-0.1569063999999988,9.65955025
2026-03-26 15:52:19.118,-1.91229675,-0.1569063999999988,9.65955025
2026-03-26 15:52:19.360,-1.91229675,-0.1569063999999988,9.65955025
2026-03-26 15:52:19.617,-1.91229675,-0.1569063999999988,9.65955025
2026-03-26 15:52:19.858,-1.91229675,-0.1569063999999988,9.65955025
2026-03-26 15:52:20.125,-1.91229675,-0.1667130499999988,9.65955025
2026-03-26 15:52:20.358,-1.91229675,-0.1569063999999988,9.65955025
2026-03-26 15:52:20.617,-1.91229675,-0.1569063999999988,9.65955025
2026-03-26 15:52:20.857,-1.91229675,-0.1569063999999988,9.65955025
2026-03-26 15:52:21.117,-1.91229675,-0.1569063999999988,9.65955025
2026-03-26 15:52:21.358,-1.91229675,-0.1569063999999988,9.65955025
2026-03-26 15:52:21.620,-1.91229675,-0.1569063999999988,9.65955025
2026-03-26 15:52:21.859,-1.91229675,-0.1569063999999988,9.65955025
2026-03-26 15:52:22.116,-1.91229675,-0.1667130499999988,9.6693569
2026-03-26 15:52:22.359,-1.91229675,-0.1569063999999988,9.65955025
2026-03-26 15:52:22.617,-1.91229675,-0.1569063999999988,9.65955025
2026-03-26 15:52:22.860,-1.91229675,-0.1569063999999988,9.65955025
2026-03-26 15:52:23.117,-1.91229675,-0.1569063999999988,9.65955025
2026-03-26 15:52:23.364,-1.91229675,-0.1569063999999988,9.65955025
2026-03-26 15:52:23.618,-1.91229675,-0.1569063999999988,9.65955025
2026-03-26 15:52:23.862,-1.91229675,-0.1667130499999988,9.65955025
2026-03-26 15:52:24.118,-1.91229675,-0.1569063999999988,9.65955025
2026-03-26 15:52:24.357,-1.91229675,-0.1569063999999988,9.65955025
2026-03-26 15:52:24.618,-1.91229675,-0.1569063999999988,9.65955025
2026-03-26 15:52:24.859,-1.91229675,-0.1569063999999988,9.65955025
2026-03-26 15:52:25.117,-1.91229675,-0.1569063999999988,9.65955025
2026-03-26 15:52:25.360,-1.91229675,-0.1569063999999988,9.65955025
2026-03-26 15:52:25.619,-1.91229675,-0.1569063999999988,9.65955025
2026-03-26 15:52:25.858,-1.91229675,-0.1569063999999988,9.65955025
2026-03-26 15:52:26.119,-1.91229675,-0.1569063999999988,9.65955025
2026-03-26 15:52:26.360,-1.91229675,-0.1569063999999988,9.65955025
2026-03-26 15:52:26.617,-1.91229675,-0.1569063999999988,9.65955025
2026-03-26 15:52:26.858,-1.91229675,-0.1569063999999988,9.6693569
2026-03-26 15:52:27.118,-1.91229675,-0.1569063999999988,9.65955025
2026-03-26 15:52:27.362,-1.91229675,-0.1569063999999988,9.65955025
2026-03-26 15:52:27.618,-1.91229675,-0.1569063999999988,9.65955025
2026-03-26 15:52:27.860,-1.91229675,-0.1569063999999988,9.65955025
2026-03-26 15:52:28.121,-1.91229675,-0.1569063999999988,9.65955025
2026-03-26 15:52:28.359,-1.91229675,-0.1569063999999988,9.65955025
2026-03-26 15:52:28.621,-1.91229675,-0.1569063999999988,9.65955025
2026-03-26 15:52:28.857,-1.9221034000000001,-0.1470997499999988,9.65955025
2026-03-26 15:52:29.121,-1.9024901,-0.1667130499999988,9.6497436
2026-03-26 15:52:29.359,-1.91229675,-0.1569063999999988,9.65955025
2026-03-26 15:52:29.622,-1.9024901,-0.1667130499999988,9.65955025
2026-03-26 15:52:29.858,-1.91229675,-0.1569063999999988,9.65955025
2026-03-26 15:52:30.117,-1.91229675,-0.1569063999999988,9.65955025
2026-03-26 15:52:30.359,-1.91229675,-0.1569063999999988,9.65955025
2026-03-26 15:52:30.621,-1.91229675,-0.1569063999999988,9.65955025
2026-03-26 15:52:30.859,-1.91229675,-0.1569063999999988,9.65955025
2026-03-26 15:52:31.117,-1.91229675,-0.1569063999999988,9.65955025
2026-03-26 15:52:31.359,-1.91229675,-0.1569063999999988,9.6693569
2026-03-26 15:52:31.618,-1.91229675,-0.1569063999999988,9.65955025
2026-03-26 15:52:31.861,-1.91229675,-0.1569063999999988,9.65955025
2026-03-26 15:52:32.117,-1.91229675,-0.1569063999999988,9.65955025
2026-03-26 15:52:32.358,-1.91229675,-0.1569063999999988,9.65955025
2026-03-26 15:52:32.617,-1.9024901,-0.1667130499999988,9.65955025
2026-03-26 15:52:32.858,-1.91229675,-0.1569063999999988,9.6693569
2026-03-26 15:52:33.118,-1.91229675,-0.1569063999999988,9.65955025
2026-03-26 15:52:33.357,-1.91229675,-0.1569063999999988,9.6693569
2026-03-26 15:52:33.618,-1.9024901,-0.1569063999999988,9.65955025
2026-03-26 15:52:33.859,-1.91229675,-0.1569063999999988,9.65955025
2026-03-26 15:52:34.120,-1.91229675,-0.1569063999999988,9.65955025
2026-03-26 15:52:34.357,-1.91229675,-0.1569063999999988,9.65955025
2026-03-26 15:52:34.618,-1.91229675,-0.1667130499999988,9.65955025
2026-03-26 15:52:34.858,-1.9024901,-0.1667130499999988,9.65955025
2026-03-26 15:52:35.120,-1.91229675,-0.1569063999999988,9.65955025
2026-03-26 15:52:35.367,-1.9024901,-0.1569063999999988,9.65955025
2026-03-26 15:52:35.617,-1.91229675,-0.1569063999999988,9.65955025
2026-03-26 15:52:35.860,-1.91229675,-0.1569063999999988,9.65955025
2026-03-26 15:52:36.117,-1.91229675,-0.1569063999999988,9.65955025
2026-03-26 15:52:36.357,-1.91229675,-0.1569063999999988,9.65955025
2026-03-26 15:52:36.618,-1.91229675,-0.1569063999999988,9.65955025
2026-03-26 15:52:36.857,-1.91229675,-0.1667130499999988,9.65955025
2026-03-26 15:52:37.118,-1.91229675,-0.1569063999999988,9.65955025
2026-03-26 15:52:37.358,-1.9024901,-0.1569063999999988,9.65955025
2026-03-26 15:52:37.617,-1.91229675,-0.1569063999999988,9.65955025
2026-03-26 15:52:37.857,-1.91229675,-0.1569063999999988,9.65955025
2026-03-26 15:52:38.119,-1.91229675,-0.1569063999999988,9.65955025
2026-03-26 15:52:38.360,-1.91229675,-0.1569063999999988,9.6693569
2026-03-26 15:52:38.617,-1.91229675,-0.1569063999999988,9.6693569
2026-03-26 15:52:38.860,-1.91229675,-0.1569063999999988,9.65955025
2026-03-26 15:52:39.118,-1.91229675,-0.1569063999999988,9.65955025
2026-03-26 15:52:39.363,-1.91229675,-0.1569063999999988,9.65955025
2026-03-26 15:52:39.617,-1.91229675,-0.1569063999999988,9.65955025
2026-03-26 15:52:39.858,-1.91229675,-0.1569063999999988,9.65955025
2026-03-26 15:52:40.117,-1.91229675,-0.1569063999999988,9.65955025
2026-03-26 15:52:40.358,-1.91229675,-0.1569063999999988,9.65955025
2026-03-26 15:52:40.617,-1.91229675,-0.1667130499999988,9.65955025
2026-03-26 15:52:40.856,-1.91229675,-0.1569063999999988,9.65955025
2026-03-26 15:52:41.121,-1.91229675,-0.1569063999999988,9.65955025
2026-03-26 15:52:41.359,-1.91229675,-0.1569063999999988,9.65955025
2026-03-26 15:52:41.617,-1.91229675,-0.1569063999999988,9.65955025
2026-03-26 15:52:41.859,-1.9024901,-0.1569063999999988,9.65955025
2026-03-26 15:52:42.116,-1.91229675,-0.1569063999999988,9.65955025
2026-03-26 15:52:42.364,-1.91229675,-0.1569063999999988,9.65955025
2026-03-26 15:52:42.617,-1.91229675,-0.1569063999999988,9.65955025
2026-03-26 15:52:42.856,-1.91229675,-0.1569063999999988,9.65955025
2026-03-26 15:52:43.120,-1.91229675,-0.1667130499999988,9.65955025
2026-03-26 15:52:43.357,-1.91229675,-0.1569063999999988,9.65955025
2026-03-26 15:52:43.617,-1.91229675,-0.1667130499999988,9.65955025
2026-03-26 15:52:43.856,-1.91229675,-0.1569063999999988,9.65955025
2026-03-26 15:52:44.118,-1.91229675,-0.1569063999999988,9.65955025
2026-03-26 15:52:44.358,-1.91229675,-0.1667130499999988,9.65955025
2026-03-26 15:52:44.618,-1.91229675,-0.1569063999999988,9.65955025
2026-03-26 15:52:44.857,-1.91229675,-0.1569063999999988,9.65955025
2026-03-26 15:52:45.117,-1.91229675,-0.1569063999999988,9.65955025
2026-03-26 15:52:45.359,-1.9024901,-0.1569063999999988,9.65955025
2026-03-26 15:52:45.616,-1.91229675,-0.1569063999999988,9.65955025
2026-03-26 15:52:45.862,-1.91229675,-0.1569063999999988,9.65955025
2026-03-26 15:52:46.117,-1.91229675,-0.1569063999999988,9.65955025
2026-03-26 15:52:46.358,-1.91229675,-0.1569063999999988,9.65955025
2026-03-26 15:52:46.639,-1.91229675,-0.1569063999999988,9.65955025
2026-03-26 15:52:46.856,-1.91229675,-0.1569063999999988,9.65955025
2026-03-26 15:52:47.118,-1.91229675,-0.1569063999999988,9.65955025
2026-03-26 15:52:47.362,-1.91229675,-0.1569063999999988,9.65955025
2026-03-26 15:52:47.621,-1.91229675,-0.1667130499999988,9.6497436
2026-03-26 15:52:47.861,-1.91229675,-0.1569063999999988,9.65955025
2026-03-26 15:52:48.119,-1.91229675,-0.1569063999999988,9.65955025
2026-03-26 15:52:48.359,-1.91229675,-0.1569063999999988,9.65955025
2026-03-26 15:52:48.617,-1.91229675,-0.1569063999999988,9.65955025
2026-03-26 15:52:48.857,-1.91229675,-0.1569063999999988,9.65955025
2026-03-26 15:52:49.118,-1.91229675,-0.1569063999999988,9.65955025
2026-03-26 15:52:49.358,-1.91229675,-0.1569063999999988,9.65955025
2026-03-26 15:52:49.617,-1.91229675,-0.1569063999999988,9.65955025
2026-03-26 15:52:49.857,-1.91229675,-0.1569063999999988,9.65955025
2026-03-26 15:52:50.117,-1.91229675,-0.1569063999999988,9.65955025
2026-03-26 15:52:50.358,-1.91229675,-0.1569063999999988,9.65955025
2026-03-26 15:52:50.617,-1.91229675,-0.1569063999999988,9.65955025
2026-03-26 15:52:50.857,-1.91229675,-0.1569063999999988,9.65955025
2026-03-26 15:52:51.121,-1.91229675,-0.1569063999999988,9.6693569
2026-03-26 15:52:51.357,-1.91229675,-0.1569063999999988,9.65955025
2026-03-26 15:52:51.618,-1.91229675,-0.1667130499999988,9.65955025
2026-03-26 15:52:51.857,-1.91229675,-0.1569063999999988,9.65955025
2026-03-26 15:52:52.118,-1.91229675,-0.1569063999999988,9.65955025
2026-03-26 15:52:52.362,-1.91229675,-0.1569063999999988,9.65955025
2026-03-26 15:52:52.619,-1.91229675,-0.1569063999999988,9.65955025
2026-03-26 15:52:52.859,-1.91229675,-0.1569063999999988,9.65955025
2026-03-26 15:52:53.117,-1.91229675,-0.1569063999999988,9.65955025
2026-03-26 15:52:53.363,-1.91229675,-0.1569063999999988,9.65955025
2026-03-26 15:52:53.617,-1.91229675,-0.1569063999999988,9.65955025
2026-03-26 15:52:53.858,-1.91229675,-0.1569063999999988,9.6693569
2026-03-26 15:52:54.116,-1.9221034000000001,-0.1470997499999988,9.6693569
2026-03-26 15:52:54.360,-1.91229675,-0.1569063999999988,9.65955025
2026-03-26 15:52:54.617,-1.91229675,-0.1569063999999988,9.65955025
2026-03-26 15:52:54.859,-1.91229675,-0.1569063999999988,9.65955025
2026-03-26 15:52:55.117,-1.91229675,-0.1569063999999988,9.65955025
2026-03-26 15:52:55.360,-1.91229675,-0.1569063999999988,9.65955025
2026-03-26 15:52:55.617,-1.91229675,-0.1569063999999988,9.65955025
2026-03-26 15:52:55.860,-1.91229675,-0.1569063999999988,9.65955025
2026-03-26 15:52:56.117,-1.91229675,-0.1569063999999988,9.65955025
2026-03-26 15:52:56.360,-1.91229675,-0.1569063999999988,9.65955025
2026-03-26 15:52:56.616,-1.91229675,-0.1569063999999988,9.6693569
2026-03-26 15:52:56.857,-1.91229675,-0.1569063999999988,9.65955025
2026-03-26 15:52:57.116,-1.91229675,-0.1569063999999988,9.65955025
2026-03-26 15:52:57.357,-1.91229675,-0.1569063999999988,9.65955025
2026-03-26 15:52:57.616,-1.91229675,-0.1667130499999988,9.65955025
2026-03-26 15:52:57.856,-1.91229675,-0.1569063999999988,9.65955025
2026-03-26 15:52:58.117,-1.91229675,-0.1569063999999988,9.65955025
2026-03-26 15:52:58.359,-1.91229675,-0.1569063999999988,9.65955025
2026-03-26 15:52:58.617,-1.91229675,-0.1569063999999988,9.65955025
2026-03-26 15:52:58.856,-1.91229675,-0.1569063999999988,9.65955025
2026-03-26 15:52:59.117,-1.91229675,-0.1569063999999988,9.65955025
2026-03-26 15:52:59.358,-1.91229675,-0.1569063999999988,9.65955025
2026-03-26 15:52:59.617,-1.91229675,-0.1569063999999988,9.65955025
2026-03-26 15:52:59.857,-1.91229675,-0.1569063999999988,9.65955025
2026-03-26 15:53:00.118,-1.91229675,-0.1569063999999988,9.65955025
2026-03-26 15:53:00.357,-1.91229675,-0.1569063999999988,9.65955025
2026-03-26 15:53:00.618,-1.91229675,-0.1569063999999988,9.65955025
2026-03-26 15:53:00.856,-1.91229675,-0.1569063999999988,9.65955025
2026-03-26 15:53:01.117,-1.91229675,-0.1569063999999988,9.65955025
2026-03-26 15:53:01.359,-1.91229675,-0.1569063999999988,9.65955025
2026-03-26 15:53:01.619,-1.91229675,-0.1569063999999988,9.65955025
2026-03-26 15:53:01.857,-1.91229675,-0.1569063999999988,9.65955025
2026-03-26 15:53:02.117,-1.91229675,-0.1569063999999988,9.65955025
2026-03-26 15:53:02.359,-1.91229675,-0.1569063999999988,9.65955025
2026-03-26 15:53:02.621,-1.91229675,-0.1569063999999988,9.65955025
2026-03-26 15:53:02.857,-1.9024901,-0.1569063999999988,9.65955025
2026-03-26 15:53:03.118,-1.91229675,-0.1569063999999988,9.65955025
2026-03-26 15:53:03.360,-1.91229675,-0.1569063999999988,9.65955025
2026-03-26 15:53:03.616,-1.91229675,-0.1470997499999988,9.65955025
2026-03-26 15:53:03.860,-1.91229675,-0.1569063999999988,9.65955025
2026-03-26 15:53:04.120,-1.91229675,-0.1569063999999988,9.65955025
2026-03-26 15:53:04.356,-1.95152335,-0.1863263499999988,9.6301303
2026-03-26 15:53:04.617,-1.9024901,-0.1372930999999988,9.65955025
2026-03-26 15:53:04.861,-1.91229675,-0.1569063999999988,9.65955025
2026-03-26 15:53:05.117,-1.91229675,-0.1569063999999988,9.65955025
2026-03-26 15:53:05.363,-1.91229675,-0.1569063999999988,9.6693569
2026-03-26 15:53:05.617,-1.91229675,-0.1667130499999988,9.65955025
2026-03-26 15:53:05.864,-1.91229675,-0.1470997499999988,9.6693569
2026-03-26 15:53:06.126,-1.91229675,-0.1569063999999988,9.65955025
2026-03-26 15:53:06.357,-1.91229675,-0.1569063999999988,9.65955025
2026-03-26 15:53:06.621,-1.91229675,-0.1569063999999988,9.65955025
2026-03-26 15:53:06.860,-1.9221034000000001,-0.1470997499999988,9.65955025
2026-03-26 15:53:07.116,-1.91229675,-0.1372930999999988,9.6693569
2026-03-26 15:53:07.359,-1.91229675,-0.1470997499999988,9.65955025
2026-03-26 15:53:07.616,-1.91229675,-0.1569063999999988,9.65955025
2026-03-26 15:53:07.859,-1.9221034000000001,-0.1470997499999988,9.65955025
2026-03-26 15:53:08.116,-1.91229675,-0.1569063999999988,9.6693569
2026-03-26 15:53:08.365,-1.9221034000000001,-0.1569063999999988,9.65955025
2026-03-26 15:53:08.616,-1.91229675,-0.1569063999999988,9.65955025
2026-03-26 15:53:08.857,-1.91229675,-0.1569063999999988,9.65955025
2026-03-26 15:53:09.118,-1.9221034000000001,-0.1569063999999988,9.65955025
2026-03-26 15:53:09.357,-1.91229675,-0.1569063999999988,9.65955025
2026-03-26 15:53:09.617,-1.91229675,-0.1569063999999988,9.65955025
2026-03-26 15:53:09.856,-1.9221034000000001,-0.1569063999999988,9.65955025
2026-03-26 15:53:10.116,-1.91229675,-0.1569063999999988,9.65955025
2026-03-26 15:53:10.360,-1.91229675,-0.1569063999999988,9.65955025
2026-03-26 15:53:10.618,-1.9221034000000001,-0.1569063999999988,9.65955025
2026-03-26 15:53:10.858,-1.9221034000000001,-0.1569063999999988,9.65955025
2026-03-26 15:53:11.118,-1.91229675,-0.1569063999999988,9.65955025
2026-03-26 15:53:11.358,-1.91229675,-0.1470997499999988,9.65955025
2026-03-26 15:53:11.619,-1.91229675,-0.1569063999999988,9.65955025
2026-03-26 15:53:11.857,-1.91229675,-0.1569063999999988,9.65955025
2026-03-26 15:53:12.117,-1.9221034000000001,-0.1569063999999988,9.6497436
2026-03-26 15:53:12.359,-1.9024901,-0.1765196999999988,9.6693569
2026-03-26 15:53:12.616,-1.91229675,-0.1667130499999988,9.6497436
2026-03-26 15:53:12.856,-1.89268345,-0.2255529499999988,9.6497436
2026-03-26 15:53:13.116,-1.91229675,-0.1667130499999988,9.65955025
2026-03-26 15:53:13.356,-1.91229675,-0.1765196999999988,9.6497436
2026-03-26 15:53:13.617,-1.91229675,-0.1569063999999988,9.65955025
2026-03-26 15:53:13.858,-1.91229675,-0.1569063999999988,9.65955025
2026-03-26 15:53:14.117,-1.9221034000000001,-0.1569063999999988,9.65955025
2026-03-26 15:53:14.359,-1.91229675,-0.1569063999999988,9.65955025
2026-03-26 15:53:14.617,-1.91229675,-0.1569063999999988,9.65955025
2026-03-26 15:53:14.857,-1.91229675,-0.1569063999999988,9.65955025
2026-03-26 15:53:15.125,-1.91229675,-0.1569063999999988,9.65955025
2026-03-26 15:53:15.365,-1.9221034000000001,-0.1274864499999988,9.6693569
2026-03-26 15:53:15.620,-1.91229675,-0.1569063999999988,9.65955025
2026-03-26 15:53:15.857,-1.9221034000000001,-0.1470997499999988,9.65955025
2026-03-26 15:53:16.117,-1.91229675,-0.1569063999999988,9.65955025
2026-03-26 15:53:16.361,-1.91229675,-0.1569063999999988,9.65955025
2026-03-26 15:53:16.622,-1.91229675,-0.1569063999999988,9.65955025
2026-03-26 15:53:16.858,-1.9024901,-0.1470997499999988,9.6693569
2026-03-26 15:53:17.119,-1.91229675,-0.1569063999999988,9.65955025
2026-03-26 15:53:17.361,-1.91229675,-0.1470997499999988,9.65955025
2026-03-26 15:53:17.619,-1.91229675,-0.1470997499999988,9.65955025
2026-03-26 15:53:17.858,-1.91229675,-0.1470997499999988,9.65955025
2026-03-26 15:53:18.118,-1.9221034000000001,-0.1470997499999988,9.65955025
2026-03-26 15:53:18.356,-1.91229675,-0.1569063999999988,9.65955025
2026-03-26 15:53:18.620,-1.91229675,-0.1569063999999988,9.6497436
2026-03-26 15:53:18.856,-1.91229675,-0.1569063999999988,9.65955025
2026-03-26 15:53:19.116,-1.91229675,-0.1569063999999988,9.65955025
2026-03-26 15:53:19.360,-1.91229675,-0.1569063999999988,9.65955025
2026-03-26 15:53:19.616,-1.91229675,-0.1569063999999988,9.65955025
2026-03-26 15:53:19.859,-1.91229675,-0.1569063999999988,9.65955025
2026-03-26 15:53:20.118,-1.91229675,-0.1569063999999988,9.65955025
2026-03-26 15:53:20.360,-1.91229675,-0.1569063999999988,9.65955025
2026-03-26 15:53:20.616,-1.91229675,-0.1569063999999988,9.65955025
2026-03-26 15:53:20.860,-1.91229675,-0.1569063999999988,9.65955025
2026-03-26 15:53:21.117,-1.91229675,-0.1569063999999988,9.65955025
2026-03-26 15:53:21.360,-1.91229675,-0.1569063999999988,9.65955025
2026-03-26 15:53:21.617,-1.91229675,-0.1470997499999988,9.65955025
2026-03-26 15:53:21.856,-1.91229675,-0.1569063999999988,9.65955025
2026-03-26 15:53:22.118,-1.91229675,-0.1569063999999988,9.65955025
2026-03-26 15:53:22.361,-1.91229675,-0.1569063999999988,9.65955025
2026-03-26 15:53:22.619,-1.91229675,-0.1569063999999988,9.65955025
2026-03-26 15:53:22.856,-1.9221034000000001,-0.1470997499999988,9.65955025
2026-03-26 15:53:23.117,-1.9221034000000001,-0.1470997499999988,9.65955025
2026-03-26 15:53:23.360,-1.91229675,-0.1569063999999988,9.65955025
2026-03-26 15:53:23.617,-1.91229675,-0.1569063999999988,9.65955025
2026-03-26 15:53:23.856,-1.91229675,-0.1569063999999988,9.65955025
2026-03-26 15:53:24.116,-1.91229675,-0.1470997499999988,9.65955025
2026-03-26 15:53:24.361,-1.91229675,-0.1569063999999988,9.65955025
2026-03-26 15:53:24.616,-1.91229675,-0.1470997499999988,9.65955025
2026-03-26 15:53:24.865,-1.91229675,-0.1470997499999988,9.65955025
2026-03-26 15:53:25.118,-1.91229675,-0.1569063999999988,9.65955025
2026-03-26 15:53:25.357,-1.91229675,-0.1569063999999988,9.65955025
2026-03-26 15:53:25.617,-1.91229675,-0.1569063999999988,9.65955025
2026-03-26 15:53:25.857,-1.91229675,-0.1569063999999988,9.65955025
2026-03-26 15:53:26.121,-1.91229675,-0.1569063999999988,9.6693569
2026-03-26 15:53:26.371,-1.91229675,-0.1569063999999988,9.65955025
2026-03-26 15:53:26.616,-1.9221034000000001,-0.1569063999999988,9.65955025
2026-03-26 15:53:26.858,-1.91229675,-0.1569063999999988,9.65955025
2026-03-26 15:53:27.117,-1.91229675,-0.1569063999999988,9.65955025
2026-03-26 15:53:27.357,-1.91229675,-0.1569063999999988,9.6497436
2026-03-26 15:53:27.623,-1.91229675,-0.1569063999999988,9.65955025
2026-03-26 15:53:27.856,-1.91229675,-0.1470997499999988,9.65955025
2026-03-26 15:53:28.116,-1.91229675,-0.1569063999999988,9.65955025
2026-03-26 15:53:28.360,-1.91229675,-0.1569063999999988,9.65955025
2026-03-26 15:53:28.616,-1.91229675,-0.1569063999999988,9.65955025
2026-03-26 15:53:28.857,-1.91229675,-0.1569063999999988,9.65955025
2026-03-26 15:53:29.120,-1.91229675,-0.1569063999999988,9.65955025
2026-03-26 15:53:29.364,-1.91229675,-0.1569063999999988,9.65955025
2026-03-26 15:53:29.617,-1.91229675,-0.1569063999999988,9.65955025
2026-03-26 15:53:29.856,-1.91229675,-0.1569063999999988,9.65955025
2026-03-26 15:53:30.117,-1.91229675,-0.1569063999999988,9.65955025
2026-03-26 15:53:30.358,-1.91229675,-0.1569063999999988,9.65955025
2026-03-26 15:53:30.622,-1.91229675,-0.1569063999999988,9.65955025
2026-03-26 15:53:30.855,-1.91229675,-0.1569063999999988,9.65955025
2026-03-26 15:53:31.132,-1.91229675,-0.1569063999999988,9.65955025
2026-03-26 15:53:31.358,-1.91229675,-0.1569063999999988,9.65955025
2026-03-26 15:53:31.616,-1.9221034000000001,-0.1569063999999988,9.65955025
2026-03-26 15:53:31.857,-1.91229675,-0.1569063999999988,9.65955025
2026-03-26 15:53:32.116,-1.91229675,-0.1569063999999988,9.65955025
2026-03-26 15:53:32.357,-1.91229675,-0.1569063999999988,9.65955025
2026-03-26 15:53:32.616,-1.91229675,-0.1569063999999988,9.65955025
2026-03-26 15:53:32.876,-1.91229675,-0.1569063999999988,9.65955025
2026-03-26 15:53:33.117,-1.91229675,-0.1569063999999988,9.65955025
2026-03-26 15:53:33.356,-1.91229675,-0.1569063999999988,9.65955025
2026-03-26 15:53:33.617,-1.91229675,-0.1569063999999988,9.65955025
2026-03-26 15:53:33.858,-1.91229675,-0.1569063999999988,9.65955025
2026-03-26 15:53:34.116,-1.91229675,-0.1569063999999988,9.65955025
2026-03-26 15:53:34.356,-1.91229675,-0.1569063999999988,9.65955025
2026-03-26 15:53:34.616,-1.91229675,-0.1569063999999988,9.65955025
2026-03-26 15:53:34.862,-1.91229675,-0.1569063999999988,9.65955025
2026-03-26 15:53:35.119,-1.91229675,-0.1470997499999988,9.65955025
2026-03-26 15:53:35.358,-1.91229675,-0.1569063999999988,9.65955025
2026-03-26 15:53:35.617,-1.91229675,-0.1569063999999988,9.65955025
2026-03-26 15:53:35.860,-1.9221034000000001,-0.1569063999999988,9.65955025
2026-03-26 15:53:36.116,-1.91229675,-0.1569063999999988,9.65955025
2026-03-26 15:53:36.357,-1.91229675,-0.1569063999999988,9.65955025
2026-03-26 15:53:36.622,-1.9024901,-0.1569063999999988,9.65955025
2026-03-26 15:53:36.861,-1.91229675,-0.1569063999999988,9.65955025
2026-03-26 15:53:37.117,-1.91229675,-0.1569063999999988,9.65955025
2026-03-26 15:53:37.360,-1.91229675,-0.1569063999999988,9.65955025
2026-03-26 15:53:37.623,-1.91229675,-0.1569063999999988,9.65955025
2026-03-26 15:53:37.857,-1.91229675,-0.1569063999999988,9.65955025
2026-03-26 15:53:38.116,-1.91229675,-0.1569063999999988,9.65955025
2026-03-26 15:53:38.362,-1.91229675,-0.1569063999999988,9.65955025
2026-03-26 15:53:38.616,-1.91229675,-0.1569063999999988,9.65955025
2026-03-26 15:53:38.856,-1.91229675,-0.1569063999999988,9.65955025
2026-03-26 15:53:39.117,-1.91229675,-0.1569063999999988,9.65955025
2026-03-26 15:53:39.358,-1.91229675,-0.1569063999999988,9.65955025
2026-03-26 15:53:39.618,-1.91229675,-0.1569063999999988,9.65955025
2026-03-26 15:53:39.856,-1.9221034000000001,-0.1470997499999988,9.65955025
2026-03-26 15:53:40.117,-1.91229675,-0.1470997499999988,9.65955025
2026-03-26 15:53:40.359,-1.91229675,-0.1470997499999988,9.65955025
2026-03-26 15:53:40.616,-1.91229675,-0.1569063999999988,9.65955025
2026-03-26 15:53:40.857,-1.91229675,-0.1569063999999988,9.65955025
2026-03-26 15:53:41.116,-1.91229675,-0.1569063999999988,9.65955025
2026-03-26 15:53:41.357,-1.91229675,-0.1569063999999988,9.6693569
2026-03-26 15:53:41.617,-1.91229675,-0.1569063999999988,9.65955025
2026-03-26 15:53:41.858,-1.91229675,-0.1569063999999988,9.65955025
2026-03-26 15:53:42.117,-1.91229675,-0.1569063999999988,9.65955025
2026-03-26 15:53:42.358,-1.91229675,-0.1569063999999988,9.65955025
2026-03-26 15:53:42.616,-1.91229675,-0.1569063999999988,9.65955025
2026-03-26 15:53:42.857,-1.91229675,-0.1569063999999988,9.65955025
2026-03-26 15:53:43.117,-1.91229675,-0.1569063999999988,9.65955025
2026-03-26 15:53:43.358,-1.91229675,-0.1569063999999988,9.65955025
2026-03-26 15:53:43.616,-1.91229675,-0.1569063999999988,9.6497436
2026-03-26 15:53:43.859,-1.91229675,-0.1569063999999988,9.65955025
2026-03-26 15:53:44.116,-1.9221034000000001,-0.1569063999999988,9.65955025
2026-03-26 15:53:44.367,-1.91229675,-0.1569063999999988,9.65955025
2026-03-26 15:53:44.616,-1.91229675,-0.1569063999999988,9.65955025
2026-03-26 15:53:44.862,-1.91229675,-0.1569063999999988,9.65955025
2026-03-26 15:53:45.116,-1.91229675,-0.1569063999999988,9.65955025
2026-03-26 15:53:45.356,-1.91229675,-0.1569063999999988,9.65955025
2026-03-26 15:53:45.621,-1.91229675,-0.1569063999999988,9.65955025
2026-03-26 15:53:45.869,-1.91229675,-0.1667130499999988,9.65955025
2026-03-26 15:53:46.116,-1.91229675,-0.1765196999999988,9.6497436
2026-03-26 15:53:46.356,-1.91229675,-0.1569063999999988,9.65955025
2026-03-26 15:53:46.618,-1.91229675,-0.1569063999999988,9.65955025
2026-03-26 15:53:46.856,-1.91229675,-0.1569063999999988,9.65955025
2026-03-26 15:53:47.117,-1.91229675,-0.1667130499999988,9.65955025
2026-03-26 15:53:47.361,-1.91229675,-0.1569063999999988,9.65955025
2026-03-26 15:53:47.616,-1.9417167,-0.1667130499999988,9.65955025
2026-03-26 15:53:47.859,-1.9221034000000001,-0.1569063999999988,9.65955025
2026-03-26 15:53:48.117,-1.91229675,-0.1569063999999988,9.65955025
2026-03-26 15:53:48.361,-1.91229675,-0.1569063999999988,9.65955025
2026-03-26 15:53:48.620,-1.91229675,-0.1569063999999988,9.65955025
2026-03-26 15:53:48.856,-1.91229675,-0.1667130499999988,9.65955025
2026-03-26 15:53:49.116,-1.91229675,-0.1569063999999988,9.65955025
2026-03-26 15:53:49.369,-1.91229675,-0.1569063999999988,9.65955025
2026-03-26 15:53:49.616,-1.91229675,-0.1569063999999988,9.65955025
2026-03-26 15:53:49.857,-1.91229675,-0.1569063999999988,9.65955025
2026-03-26 15:53:50.117,-1.91229675,-0.1569063999999988,9.65955025
2026-03-26 15:53:50.356,-1.91229675,-0.1569063999999988,9.6693569
2026-03-26 15:53:50.616,-1.91229675,-0.1569063999999988,9.65955025
2026-03-26 15:53:50.858,-1.91229675,-0.1569063999999988,9.65955025
2026-03-26 15:53:51.116,-1.91229675,-0.1569063999999988,9.65955025
2026-03-26 15:53:51.357,-1.91229675,-0.1569063999999988,9.65955025
2026-03-26 15:53:51.623,-1.91229675,-0.1569063999999988,9.65955025
2026-03-26 15:53:51.858,-1.91229675,-0.1569063999999988,9.65955025
2026-03-26 15:53:52.119,-1.91229675,-0.1569063999999988,9.65955025
2026-03-26 15:53:52.359,-1.91229675,-0.1569063999999988,9.65955025
2026-03-26 15:53:52.616,-1.91229675,-0.1569063999999988,9.65955025
2026-03-26 15:53:52.857,-1.91229675,-0.1569063999999988,9.65955025
2026-03-26 15:53:53.118,-1.91229675,-0.1569063999999988,9.65955025
2026-03-26 15:53:53.356,-1.91229675,-0.1569063999999988,9.65955025
2026-03-26 15:53:53.615,-1.91229675,-0.1569063999999988,9.65955025
2026-03-26 15:53:53.856,-1.91229675,-0.1569063999999988,9.65955025
2026-03-26 15:53:54.117,-1.91229675,-0.1569063999999988,9.65955025
2026-03-26 15:53:54.357,-1.91229675,-0.1569063999999988,9.65955025
2026-03-26 15:53:54.629,-1.91229675,-0.1569063999999988,9.65955025
2026-03-26 15:53:54.859,-1.91229675,-0.1569063999999988,9.65955025
2026-03-26 15:53:55.120,-1.91229675,-0.1569063999999988,9.65955025
2026-03-26 15:53:55.357,-1.91229675,-0.1569063999999988,9.65955025
2026-03-26 15:53:55.616,-1.91229675,-0.1569063999999988,9.65955025
2026-03-26 15:53:55.856,-1.91229675,-0.1569063999999988,9.65955025
2026-03-26 15:53:56.117,-1.91229675,-0.1569063999999988,9.65955025
2026-03-26 15:53:56.359,-1.91229675,-0.1569063999999988,9.65955025
2026-03-26 15:53:56.617,-1.91229675,-0.1569063999999988,9.65955025
2026-03-26 15:53:56.872,-1.91229675,-0.1569063999999988,9.65955025
2026-03-26 15:53:57.120,-1.91229675,-0.1569063999999988,9.65955025
2026-03-26 15:53:57.357,-1.91229675,-0.1569063999999988,9.65955025
2026-03-26 15:53:57.617,-1.91229675,-0.1470997499999988,9.6693569
2026-03-26 15:53:57.865,-1.9221034000000001,-0.1667130499999988,9.6497436
2026-03-26 15:53:58.118,-1.89268345,-0.1470997499999988,9.6693569
2026-03-26 15:53:58.360,-1.91229675,-0.1372930999999988,9.6497436
2026-03-26 15:53:58.616,-1.91229675,-0.1470997499999988,9.65955025
2026-03-26 15:53:58.856,-1.91229675,-0.1667130499999988,9.65955025
2026-03-26 15:53:59.119,-1.91229675,-0.1569063999999988,9.65955025
2026-03-26 15:53:59.358,-1.91229675,-0.1569063999999988,9.65955025
2026-03-26 15:53:59.622,-1.91229675,-0.1569063999999988,9.65955025
2026-03-26 15:53:59.860,-1.91229675,-0.1569063999999988,9.65955025
2026-03-26 15:54:00.116,-1.91229675,-0.1569063999999988,9.65955025
2026-03-26 15:54:00.362,-1.91229675,-0.1569063999999988,9.65955025
2026-03-26 15:54:00.617,-1.91229675,-0.1569063999999988,9.65955025
2026-03-26 15:54:00.861,-1.91229675,-0.1569063999999988,9.65955025
2026-03-26 15:54:01.117,-1.9024901,-0.1667130499999988,9.65955025
2026-03-26 15:54:01.357,-1.91229675,-0.1569063999999988,9.65955025
2026-03-26 15:54:01.617,-1.91229675,-0.1569063999999988,9.65955025
2026-03-26 15:54:01.862,-1.91229675,-0.1569063999999988,9.65955025
2026-03-26 15:54:02.116,-1.91229675,-0.1569063999999988,9.65955025
2026-03-26 15:54:02.366,-1.91229675,-0.1569063999999988,9.65955025
2026-03-26 15:54:02.621,-1.9221034000000001,-0.1569063999999988,9.6693569
2026-03-26 15:54:02.856,-1.91229675,-0.1569063999999988,9.65955025
2026-03-26 15:54:03.116,-1.91229675,-0.1569063999999988,9.65955025
2026-03-26 15:54:03.361,-1.91229675,-0.1569063999999988,9.65955025
2026-03-26 15:54:03.617,-1.91229675,-0.1569063999999988,9.65955025
2026-03-26 15:54:03.857,-1.91229675,-0.1569063999999988,9.65955025
2026-03-26 15:54:04.116,-1.91229675,-0.1569063999999988,9.65955025
2026-03-26 15:54:04.363,-1.91229675,-0.1569063999999988,9.65955025
2026-03-26 15:54:04.617,-1.91229675,-0.1569063999999988,9.65955025
2026-03-26 15:54:04.858,-1.91229675,-0.1569063999999988,9.65955025
2026-03-26 15:54:05.115,-1.91229675,-0.1569063999999988,9.65955025
2026-03-26 15:54:05.360,-1.91229675,-0.1569063999999988,9.65955025
2026-03-26 15:54:05.617,-1.91229675,-0.1667130499999988,9.65955025
2026-03-26 15:54:05.855,-1.91229675,-0.1569063999999988,9.65955025
2026-03-26 15:54:06.115,-1.91229675,-0.1569063999999988,9.65955025
2026-03-26 15:54:06.358,-1.91229675,-0.1569063999999988,9.65955025
2026-03-26 15:54:06.616,-1.91229675,-0.1569063999999988,9.65955025
2026-03-26 15:54:06.858,-1.91229675,-0.1569063999999988,9.65955025
2026-03-26 15:54:07.116,-1.91229675,-0.1569063999999988,9.65955025
2026-03-26 15:54:07.357,-1.91229675,-0.1569063999999988,9.65955025
2026-03-26 15:54:07.617,-1.91229675,-0.1569063999999988,9.65955025
2026-03-26 15:54:07.859,-1.91229675,-0.1569063999999988,9.65955025
2026-03-26 15:54:08.116,-1.91229675,-0.1569063999999988,9.65955025
2026-03-26 15:54:08.360,-1.91229675,-0.1569063999999988,9.65955025
2026-03-26 15:54:08.618,-1.91229675,-0.1569063999999988,9.65955025
2026-03-26 15:54:08.856,-1.91229675,-0.1569063999999988,9.65955025
2026-03-26 15:54:09.115,-1.91229675,-0.1569063999999988,9.65955025
2026-03-26 15:54:09.359,-1.91229675,-0.1667130499999988,9.65955025
2026-03-26 15:54:09.615,-1.91229675,-0.1569063999999988,9.65955025
2026-03-26 15:54:09.862,-1.91229675,-0.1569063999999988,9.65955025
2026-03-26 15:54:10.117,-1.91229675,-0.1569063999999988,9.65955025
2026-03-26 15:54:10.355,-1.91229675,-0.1569063999999988,9.65955025
2026-03-26 15:54:10.623,-1.91229675,-0.1569063999999988,9.65955025
2026-03-26 15:54:10.857,-1.91229675,-0.1569063999999988,9.65955025
2026-03-26 15:54:11.116,-1.91229675,-0.1569063999999988,9.65955025
2026-03-26 15:54:11.357,-1.91229675,-0.1569063999999988,9.65955025
2026-03-26 15:54:11.616,-1.91229675,-0.1569063999999988,9.65955025
2026-03-26 15:54:11.859,-1.91229675,-0.1569063999999988,9.65955025
2026-03-26 15:54:12.118,-1.91229675,-0.1569063999999988,9.65955025
2026-03-26 15:54:12.356,-1.91229675,-0.1569063999999988,9.65955025
2026-03-26 15:54:12.616,-1.91229675,-0.1569063999999988,9.65955025
2026-03-26 15:54:12.857,-1.91229675,-0.1569063999999988,9.65955025
2026-03-26 15:54:13.115,-1.91229675,-0.1569063999999988,9.65955025
2026-03-26 15:54:13.358,-1.91229675,-0.1569063999999988,9.65955025
2026-03-26 15:54:13.616,-1.91229675,-0.1569063999999988,9.65955025
2026-03-26 15:54:13.855,-1.91229675,-0.1569063999999988,9.65955025
2026-03-26 15:54:14.116,-1.91229675,-0.1470997499999988,9.6693569
2026-03-26 15:54:14.369,-1.9417167,-0.1274864499999988,9.6693569
2026-03-26 15:54:14.616,-1.93191005,-0.11767979999999882,9.67916355
2026-03-26 15:54:14.856,-1.9221034000000001,-0.1569063999999988,9.6693569
2026-03-26 15:54:15.117,-1.9024901,-0.1863263499999988,9.65955025
2026-03-26 15:54:15.357,-1.89268345,-0.1863263499999988,9.65955025
2026-03-26 15:54:15.615,-1.9221034000000001,-0.1372930999999988,9.6889702
2026-03-26 15:54:15.855,-1.91229675,-0.1470997499999988,9.6497436
2026-03-26 15:54:16.117,-1.9221034000000001,-0.1372930999999988,9.67916355
2026-03-26 15:54:16.356,-1.91229675,-0.1569063999999988,9.65955025
2026-03-26 15:54:16.617,-1.91229675,-0.1569063999999988,9.65955025
2026-03-26 15:54:16.856,-1.91229675,-0.1569063999999988,9.65955025
2026-03-26 15:54:17.117,-1.91229675,-0.1569063999999988,9.65955025
2026-03-26 15:54:17.358,-1.91229675,-0.1569063999999988,9.65955025
2026-03-26 15:54:17.621,-1.91229675,-0.1667130499999988,9.65955025
2026-03-26 15:54:17.857,-1.91229675,-0.1569063999999988,9.65955025
2026-03-26 15:54:18.116,-1.91229675,-0.1569063999999988,9.6693569
2026-03-26 15:54:18.356,-1.91229675,-0.1569063999999988,9.65955025
2026-03-26 15:54:18.618,-1.91229675,-0.1569063999999988,9.65955025
2026-03-26 15:54:18.855,-1.9221034000000001,-0.1569063999999988,9.65955025
2026-03-26 15:54:19.115,-1.91229675,-0.1569063999999988,9.65955025
2026-03-26 15:54:19.365,-1.91229675,-0.1569063999999988,9.65955025
2026-03-26 15:54:19.616,-1.91229675,-0.1569063999999988,9.65955025
2026-03-26 15:54:19.857,-1.91229675,-0.1569063999999988,9.65955025
2026-03-26 15:54:20.115,-1.91229675,-0.1569063999999988,9.65955025
2026-03-26 15:54:20.360,-1.91229675,-0.1569063999999988,9.65955025
2026-03-26 15:54:20.616,-1.91229675,-0.1569063999999988,9.65955025
2026-03-26 15:54:20.857,-1.91229675,-0.1569063999999988,9.65955025
2026-03-26 15:54:21.116,-1.91229675,-0.1667130499999988,9.65955025
2026-03-26 15:54:21.359,-1.91229675,-0.1569063999999988,9.65955025
2026-03-26 15:54:21.616,-1.91229675,-0.1569063999999988,9.65955025
2026-03-26 15:54:21.861,-1.91229675,-0.1569063999999988,9.65955025
2026-03-26 15:54:22.119,-1.91229675,-0.1569063999999988,9.65955025
2026-03-26 15:54:22.356,-1.91229675,-0.1569063999999988,9.65955025
2026-03-26 15:54:22.616,-1.91229675,-0.1569063999999988,9.65955025
2026-03-26 15:54:22.856,-1.91229675,-0.1569063999999988,9.65955025
2026-03-26 15:54:23.115,-1.91229675,-0.1569063999999988,9.65955025
2026-03-26 15:54:23.359,-1.91229675,-0.1569063999999988,9.65955025
2026-03-26 15:54:23.620,-1.91229675,-0.1569063999999988,9.65955025
2026-03-26 15:54:23.856,-1.91229675,-0.1569063999999988,9.65955025
2026-03-26 15:54:24.115,-1.91229675,-0.1569063999999988,9.65955025
2026-03-26 15:54:24.356,-1.91229675,-0.1569063999999988,9.65955025
2026-03-26 15:54:24.617,-1.91229675,-0.1569063999999988,9.65955025
2026-03-26 15:54:24.856,-1.91229675,-0.1569063999999988,9.65955025
2026-03-26 15:54:25.115,-1.91229675,-0.1569063999999988,9.65955025
2026-03-26 15:54:25.356,-1.91229675,-0.1569063999999988,9.65955025
2026-03-26 15:54:25.617,-1.9221034000000001,-0.1569063999999988,9.65955025
2026-03-26 15:54:25.865,-1.91229675,-0.1569063999999988,9.65955025
2026-03-26 15:54:26.116,-1.91229675,-0.1569063999999988,9.65955025
2026-03-26 15:54:26.358,-1.91229675,-0.1569063999999988,9.65955025
2026-03-26 15:54:26.616,-1.91229675,-0.1569063999999988,9.65955025
2026-03-26 15:54:26.856,-1.91229675,-0.1569063999999988,9.65955025
2026-03-26 15:54:27.116,-1.91229675,-0.1569063999999988,9.65955025
2026-03-26 15:54:27.359,-1.91229675,-0.1569063999999988,9.6693569
2026-03-26 15:54:27.618,-1.91229675,-0.1569063999999988,9.65955025
2026-03-26 15:54:27.855,-1.91229675,-0.1569063999999988,9.65955025
2026-03-26 15:54:28.116,-1.91229675,-0.1569063999999988,9.65955025
2026-03-26 15:54:28.356,-1.91229675,-0.1569063999999988,9.65955025
2026-03-26 15:54:28.617,-1.91229675,-0.1569063999999988,9.65955025
2026-03-26 15:54:28.856,-1.91229675,-0.1569063999999988,9.65955025
2026-03-26 15:54:29.116,-1.91229675,-0.1667130499999988,9.65955025
2026-03-26 15:54:29.357,-1.91229675,-0.1569063999999988,9.65955025
2026-03-26 15:54:29.616,-1.91229675,-0.1569063999999988,9.65955025
2026-03-26 15:54:29.856,-1.91229675,-0.1569063999999988,9.65955025
2026-03-26 15:54:30.117,-1.9221034000000001,-0.1569063999999988,9.65955025
2026-03-26 15:54:30.359,-1.91229675,-0.1569063999999988,9.65955025
2026-03-26 15:54:30.615,-1.91229675,-0.1569063999999988,9.65955025
2026-03-26 15:54:30.855,-1.91229675,-0.1569063999999988,9.65955025
2026-03-26 15:54:31.116,-1.91229675,-0.1569063999999988,9.65955025
2026-03-26 15:54:31.370,-1.91229675,-0.1569063999999988,9.65955025
2026-03-26 15:54:31.616,-1.91229675,-0.1569063999999988,9.65955025
2026-03-26 15:54:31.861,-1.91229675,-0.1569063999999988,9.65955025
2026-03-26 15:54:32.119,-1.91229675,-0.1569063999999988,9.65955025
2026-03-26 15:54:32.356,-1.91229675,-0.1569063999999988,9.65955025
2026-03-26 15:54:32.615,-1.91229675,-0.1569063999999988,9.65955025
2026-03-26 15:54:32.855,-1.91229675,-0.1569063999999988,9.65955025
2026-03-26 15:54:33.120,-1.91229675,-0.1569063999999988,9.65955025
2026-03-26 15:54:33.355,-1.91229675,-0.1569063999999988,9.65955025
2026-03-26 15:54:33.616,-1.91229675,-0.1569063999999988,9.65955025
2026-03-26 15:54:33.855,-1.91229675,-0.1569063999999988,9.65955025
2026-03-26 15:54:34.115,-1.91229675,-0.1569063999999988,9.65955025
2026-03-26 15:54:34.360,-1.91229675,-0.1569063999999988,9.65955025
2026-03-26 15:54:34.615,-1.91229675,-0.1569063999999988,9.65955025
2026-03-26 15:54:34.856,-1.91229675,-0.1569063999999988,9.65955025
2026-03-26 15:54:35.116,-1.91229675,-0.1569063999999988,9.65955025
2026-03-26 15:54:35.358,-1.91229675,-0.1569063999999988,9.65955025
2026-03-26 15:54:35.616,-1.91229675,-0.1569063999999988,9.65955025
2026-03-26 15:54:35.856,-1.91229675,-0.1569063999999988,9.65955025
2026-03-26 15:54:36.116,-1.91229675,-0.1569063999999988,9.65955025
2026-03-26 15:54:36.355,-1.91229675,-0.1569063999999988,9.65955025
2026-03-26 15:54:36.616,-1.91229675,-0.1569063999999988,9.65955025
2026-03-26 15:54:36.856,-1.91229675,-0.1569063999999988,9.6693569
2026-03-26 15:54:37.116,-1.91229675,-0.1569063999999988,9.65955025
2026-03-26 15:54:37.355,-1.91229675,-0.1569063999999988,9.65955025
2026-03-26 15:54:37.616,-1.91229675,-0.1569063999999988,9.65955025
2026-03-26 15:54:37.855,-1.91229675,-0.1569063999999988,9.65955025
2026-03-26 15:54:38.115,-1.91229675,-0.1569063999999988,9.65955025
2026-03-26 15:54:38.358,-1.91229675,-0.1569063999999988,9.65955025
2026-03-26 15:54:38.615,-1.91229675,-0.1569063999999988,9.65955025
2026-03-26 15:54:38.855,-1.91229675,-0.1569063999999988,9.6693569
2026-03-26 15:54:39.116,-1.91229675,-0.1569063999999988,9.6693569
2026-03-26 15:54:39.355,-1.91229675,-0.1569063999999988,9.65955025
2026-03-26 15:54:39.617,-1.91229675,-0.1569063999999988,9.65955025
2026-03-26 15:54:39.855,-1.9024901,-0.1569063999999988,9.65955025
2026-03-26 15:54:40.118,-1.91229675,-0.1569063999999988,9.65955025
2026-03-26 15:54:40.359,-1.91229675,-0.1569063999999988,9.65955025
2026-03-26 15:54:40.619,-1.91229675,-0.1569063999999988,9.65955025
2026-03-26 15:54:40.860,-1.91229675,-0.1667130499999988,9.65955025
2026-03-26 15:54:41.116,-1.91229675,-0.1569063999999988,9.65955025
2026-03-26 15:54:41.360,-1.91229675,-0.1569063999999988,9.65955025
2026-03-26 15:54:41.616,-1.91229675,-0.1569063999999988,9.65955025
2026-03-26 15:54:41.862,-1.91229675,-0.1569063999999988,9.6693569
2026-03-26 15:54:42.116,-1.91229675,-0.1569063999999988,9.65955025
2026-03-26 15:54:42.360,-1.91229675,-0.1569063999999988,9.65955025
2026-03-26 15:54:42.616,-1.91229675,-0.1569063999999988,9.65955025
2026-03-26 15:54:42.856,-1.91229675,-0.1569063999999988,9.65955025
2026-03-26 15:54:43.115,-1.91229675,-0.1569063999999988,9.65955025
2026-03-26 15:54:43.356,-1.91229675,-0.1569063999999988,9.65955025
2026-03-26 15:54:43.615,-1.91229675,-0.1569063999999988,9.65955025
2026-03-26 15:54:43.855,-1.91229675,-0.1569063999999988,9.65955025
2026-03-26 15:54:44.116,-1.91229675,-0.1569063999999988,9.65955025
2026-03-26 15:54:44.356,-1.91229675,-0.1569063999999988,9.65955025
2026-03-26 15:54:44.628,-1.91229675,-0.1569063999999988,9.65955025
2026-03-26 15:54:44.859,-1.91229675,-0.1569063999999988,9.65955025
2026-03-26 15:54:45.115,-1.91229675,-0.1569063999999988,9.6693569
2026-03-26 15:54:45.356,-1.91229675,-0.1569063999999988,9.65955025
2026-03-26 15:54:45.616,-1.91229675,-0.1569063999999988,9.65955025
2026-03-26 15:54:45.856,-1.91229675,-0.1470997499999988,9.65955025
2026-03-26 15:54:46.115,-1.91229675,-0.1569063999999988,9.65955025
2026-03-26 15:54:46.358,-1.91229675,-0.1569063999999988,9.65955025
2026-03-26 15:54:46.615,-1.91229675,-0.1569063999999988,9.65955025
2026-03-26 15:54:46.890,-1.91229675,-0.1569063999999988,9.65955025
2026-03-26 15:54:47.115,-1.91229675,-0.1569063999999988,9.65955025
2026-03-26 15:54:47.354,-1.91229675,-0.1569063999999988,9.65955025
2026-03-26 15:54:47.615,-1.91229675,-0.1569063999999988,9.65955025
2026-03-26 15:54:47.855,-1.91229675,-0.1569063999999988,9.65955025
2026-03-26 15:54:48.120,-1.91229675,-0.1569063999999988,9.65955025
2026-03-26 15:54:48.362,-1.91229675,-0.1569063999999988,9.65955025
2026-03-26 15:54:48.617,-1.91229675,-0.1569063999999988,9.65955025
2026-03-26 15:54:48.855,-1.91229675,-0.1569063999999988,9.65955025
2026-03-26 15:54:49.115,-1.91229675,-0.1569063999999988,9.65955025
2026-03-26 15:54:49.357,-1.91229675,-0.1569063999999988,9.65955025
2026-03-26 15:55:18.396,0.0,0.0,0.0
2026-03-26 15:55:18.637,0.0,0.0,0.0
2026-03-26 15:55:18.882,0.0,0.0,0.0
2026-03-26 15:55:19.135,-1.91229675,-0.1569063999999988,9.65955025
2026-03-26 15:55:19.401,-1.91229675,-0.1569063999999988,9.65955025
2026-03-26 15:55:19.637,-1.91229675,-0.1569063999999988,9.65955025
2026-03-26 15:55:19.878,-1.91229675,-0.1569063999999988,9.65955025
2026-03-26 15:55:20.137,-1.91229675,-0.1569063999999988,9.65955025
2026-03-26 15:55:20.400,-1.91229675,-0.1569063999999988,9.65955025
2026-03-26 15:55:20.636,-1.91229675,-0.1569063999999988,9.65955025
2026-03-26 15:55:20.878,-1.91229675,-0.1569063999999988,9.65955025
2026-03-26 15:55:21.136,-1.91229675,-0.1569063999999988,9.65955025
2026-03-26 15:55:21.408,-1.91229675,-0.1569063999999988,9.65955025
2026-03-26 15:55:21.651,-1.91229675,-0.1569063999999988,9.65955025
2026-03-26 15:55:21.885,-1.91229675,-0.1569063999999988,9.65955025
2026-03-26 15:55:22.135,-1.91229675,-0.1569063999999988,9.65955025
2026-03-26 15:55:22.403,-1.91229675,-0.1569063999999988,9.65955025
2026-03-26 15:55:22.657,-1.91229675,-0.1569063999999988,9.65955025
2026-03-26 15:55:22.876,-1.91229675,-0.1569063999999988,9.65955025
2026-03-26 15:55:23.135,-1.91229675,-0.1569063999999988,9.65955025
2026-03-26 15:55:23.395,-1.91229675,-0.1569063999999988,9.65955025
2026-03-26 15:55:23.636,-1.91229675,-0.1569063999999988,9.65955025
2026-03-26 15:55:23.876,-1.91229675,-0.1569063999999988,9.65955025
2026-03-26 15:55:24.134,-1.91229675,-0.1569063999999988,9.65955025
2026-03-26 15:55:24.398,-1.91229675,-0.1569063999999988,9.65955025
2026-03-26 15:55:24.635,-1.91229675,-0.1569063999999988,9.65955025
2026-03-26 15:55:24.920,-1.91229675,-0.1569063999999988,9.65955025
2026-03-26 15:55:25.135,-1.91229675,-0.1569063999999988,9.65955025
2026-03-26 15:55:25.395,-1.91229675,-0.1569063999999988,9.65955025
2026-03-26 15:55:25.638,-1.91229675,-0.1569063999999988,9.65955025
2026-03-26 15:55:25.884,-1.91229675,-0.1569063999999988,9.65955025
2026-03-26 15:55:26.135,-1.91229675,-0.1569063999999988,9.65955025
2026-03-26 15:55:26.400,-1.91229675,-0.1569063999999988,9.65955025
2026-03-26 15:55:26.638,-1.91229675,-0.1569063999999988,9.65955025
2026-03-26 15:55:26.885,-1.91229675,-0.1569063999999988,9.65955025
2026-03-26 15:55:27.134,-1.91229675,-0.1667130499999988,9.65955025
2026-03-26 15:55:27.404,-1.91229675,-0.1569063999999988,9.65955025
2026-03-26 15:55:27.637,-1.91229675,-0.1569063999999988,9.65955025
2026-03-26 15:55:27.878,-1.91229675,-0.1569063999999988,9.65955025
2026-03-26 15:55:28.135,-1.91229675,-0.1569063999999988,9.65955025
2026-03-26 15:55:28.395,-1.91229675,-0.1569063999999988,9.65955025
2026-03-26 15:55:28.643,-1.91229675,-0.1569063999999988,9.65955025
2026-03-26 15:55:28.875,-1.91229675,-0.1569063999999988,9.65955025
2026-03-26 15:55:33.366,-1.91229675,-0.1569063999999988,9.65955025
2026-03-26 15:55:34.613,-1.91229675,-0.1569063999999988,9.65955025
2026-03-26 15:55:35.379,-1.91229675,-0.1569063999999988,9.65955025
2026-03-26 15:55:36.648,-1.91229675,-0.1569063999999988,9.65955025
2026-03-26 15:55:36.986,-1.91229675,-0.1569063999999988,9.65955025
2026-03-26 15:55:36.995,-1.91229675,-0.1569063999999988,9.6693569
2026-03-26 15:55:37.001,-1.91229675,-0.1569063999999988,9.65955025
2026-03-26 15:55:37.009,-1.91229675,-0.1569063999999988,9.65955025
2026-03-26 15:55:37.027,-1.91229675,-0.1569063999999988,9.65955025
2026-03-26 15:55:37.062,-1.9024901,-0.1569063999999988,9.65955025
2026-03-26 15:55:37.068,-1.91229675,-0.1569063999999988,9.65955025
2026-03-26 15:55:37.079,-1.91229675,-0.1569063999999988,9.65955025
2026-03-26 15:55:37.096,-1.91229675,-0.1569063999999988,9.65955025
2026-03-26 15:55:37.105,-1.91229675,-0.1569063999999988,9.65955025
2026-03-26 15:55:37.119,-1.91229675,-0.1569063999999988,9.6693569
2026-03-26 15:55:37.168,-1.91229675,-0.1569063999999988,9.65955025
2026-03-26 15:55:37.179,-1.91229675,-0.1569063999999988,9.65955025
2026-03-26 15:55:37.183,-1.91229675,-0.1569063999999988,9.65955025
2026-03-26 15:55:37.189,-1.91229675,-0.1569063999999988,9.65955025
2026-03-26 15:55:37.206,-1.91229675,-0.1569063999999988,9.65955025
2026-03-26 15:55:37.410,-1.91229675,-0.1569063999999988,9.6693569
2026-03-26 15:55:37.635,-1.91229675,-0.1569063999999988,9.65955025
2026-03-26 15:55:37.883,-1.91229675,-0.1569063999999988,9.65955025
2026-03-26 15:55:38.135,-1.91229675,-0.1569063999999988,9.65955025
2026-03-26 15:55:38.394,-1.9221034000000001,-0.1569063999999988,9.65955025
2026-03-26 15:55:38.635,-1.91229675,-0.1569063999999988,9.6693569
2026-03-26 15:55:38.875,-1.9221034000000001,-0.1569063999999988,9.65955025
2026-03-26 15:55:39.139,-1.91229675,-0.1569063999999988,9.65955025
2026-03-26 15:55:39.395,-1.91229675,-0.1569063999999988,9.65955025
2026-03-26 15:55:39.635,-1.91229675,-0.1569063999999988,9.65955025
2026-03-26 15:55:39.888,-1.91229675,-0.1667130499999988,9.6497436
2026-03-26 15:55:40.168,-1.9024901,-0.1667130499999988,9.65955025
2026-03-26 15:55:40.395,-1.91229675,-0.1569063999999988,9.65955025
2026-03-26 15:55:40.635,-1.91229675,-0.1569063999999988,9.65955025
2026-03-26 15:55:40.875,-1.91229675,-0.1569063999999988,9.65955025
2026-03-26 15:55:41.137,-1.91229675,-0.1569063999999988,9.65955025
2026-03-26 15:55:41.395,-1.91229675,-0.1569063999999988,9.65955025
2026-03-26 15:55:41.639,-1.91229675,-0.1569063999999988,9.65955025
2026-03-26 15:55:41.879,-1.91229675,-0.1569063999999988,9.65955025
2026-03-26 15:55:42.134,-1.91229675,-0.1667130499999988,9.65955025
2026-03-26 15:55:42.402,-1.91229675,-0.1569063999999988,9.65955025
2026-03-26 15:55:42.636,-1.91229675,-0.1569063999999988,9.65955025
2026-03-26 15:55:42.877,-1.91229675,-0.1569063999999988,9.65955025
2026-03-26 15:55:43.136,-1.91229675,-0.1569063999999988,9.65955025
2026-03-26 15:55:43.405,-1.91229675,-0.1569063999999988,9.65955025
2026-03-26 15:55:43.635,-1.91229675,-0.1569063999999988,9.65955025
2026-03-26 15:55:43.880,-1.91229675,-0.1569063999999988,9.65955025
2026-03-26 15:55:44.141,-1.91229675,-0.1569063999999988,9.65955025
2026-03-26 15:55:44.394,-1.91229675,-0.1667130499999988,9.65955025
2026-03-26 15:55:44.640,-1.91229675,-0.1569063999999988,9.65955025
2026-03-26 15:55:44.876,-1.91229675,-0.1569063999999988,9.65955025
2026-03-26 15:55:45.139,-1.91229675,-0.1569063999999988,9.65955025
2026-03-26 15:55:45.400,-1.91229675,-0.1569063999999988,9.65955025
2026-03-26 15:55:45.637,-1.91229675,-0.1569063999999988,9.65955025
2026-03-26 15:55:45.880,-1.91229675,-0.1569063999999988,9.65955025
2026-03-26 15:55:46.135,-1.91229675,-0.1569063999999988,9.65955025
2026-03-26 15:55:46.403,-1.91229675,-0.1569063999999988,9.65955025
2026-03-26 15:55:46.637,-1.91229675,-0.1667130499999988,9.65955025
2026-03-26 15:55:46.876,-1.91229675,-0.1569063999999988,9.65955025
2026-03-26 15:55:47.135,-1.91229675,-0.1569063999999988,9.65955025
2026-03-26 15:55:47.427,-1.91229675,-0.1569063999999988,9.65955025
2026-03-26 15:55:47.636,-1.91229675,-0.1569063999999988,9.65955025
2026-03-26 15:55:47.885,-1.91229675,-0.1569063999999988,9.65955025
2026-03-26 15:55:48.134,-1.91229675,-0.1569063999999988,9.65955025
2026-03-26 15:55:48.417,-1.91229675,-0.1569063999999988,9.65955025
2026-03-26 15:55:48.636,-1.91229675,-0.1569063999999988,9.65955025
2026-03-26 15:55:48.876,-1.91229675,-0.1569063999999988,9.65955025
2026-03-26 15:55:49.136,-1.91229675,-0.1569063999999988,9.65955025
2026-03-26 15:55:49.395,-1.91229675,-0.1569063999999988,9.65955025
2026-03-26 15:55:49.638,-1.91229675,-0.1569063999999988,9.65955025
2026-03-26 15:55:49.875,-1.91229675,-0.1569063999999988,9.65955025
2026-03-26 15:55:50.135,-1.91229675,-0.1569063999999988,9.65955025
2026-03-26 15:55:50.396,-1.91229675,-0.1569063999999988,9.65955025
2026-03-26 15:55:50.635,-1.91229675,-0.1569063999999988,9.6693569
2026-03-26 15:55:50.876,-1.91229675,-0.1569063999999988,9.65955025
2026-03-26 15:55:51.135,-1.91229675,-0.1667130499999988,9.65955025
2026-03-26 15:55:51.398,-1.91229675,-0.1569063999999988,9.65955025
2026-03-26 15:55:51.636,-1.91229675,-0.1569063999999988,9.65955025
2026-03-26 15:55:51.877,-1.91229675,-0.1569063999999988,9.65955025
2026-03-26 15:55:52.136,-1.91229675,-0.1569063999999988,9.65955025
2026-03-26 15:55:52.396,-1.91229675,-0.1667130499999988,9.65955025
2026-03-26 15:55:52.635,-1.91229675,-0.1569063999999988,9.65955025
2026-03-26 15:55:52.886,-1.91229675,-0.1569063999999988,9.65955025
2026-03-26 15:55:53.137,-1.91229675,-0.1667130499999988,9.65955025
2026-03-26 15:55:53.395,-1.91229675,-0.1569063999999988,9.65955025
2026-03-26 15:55:53.634,-1.91229675,-0.1667130499999988,9.65955025
2026-03-26 15:55:53.875,-1.91229675,-0.1569063999999988,9.65955025
2026-03-26 15:55:54.135,-1.91229675,-0.1569063999999988,9.65955025
2026-03-26 15:55:54.395,-1.91229675,-0.1569063999999988,9.65955025
2026-03-26 15:55:54.640,-1.91229675,-0.1569063999999988,9.65955025
2026-03-26 15:55:54.875,-1.91229675,-0.1569063999999988,9.65955025
2026-03-26 15:55:55.134,-1.91229675,-0.1569063999999988,9.65955025
2026-03-26 15:55:55.394,-1.91229675,-0.1569063999999988,9.65955025
2026-03-26 15:55:55.639,-1.91229675,-0.1569063999999988,9.65955025
2026-03-26 15:55:55.890,-1.91229675,-0.1569063999999988,9.65955025
2026-03-26 15:55:56.134,-1.91229675,-0.1569063999999988,9.65955025
2026-03-26 15:55:56.395,-1.91229675,-0.1569063999999988,9.65955025
2026-03-26 15:55:56.635,-1.91229675,-0.1569063999999988,9.65955025
2026-03-26 15:55:56.876,-1.91229675,-0.1667130499999988,9.65955025
2026-03-26 15:55:57.135,-1.91229675,-0.1569063999999988,9.65955025
2026-03-26 15:55:57.399,-1.91229675,-0.1569063999999988,9.65955025
2026-03-26 15:55:57.640,-1.91229675,-0.1569063999999988,9.65955025
2026-03-26 15:55:57.877,-1.91229675,-0.1569063999999988,9.65955025
2026-03-26 15:55:58.137,-1.91229675,-0.1569063999999988,9.65955025
2026-03-26 15:55:58.395,-1.91229675,-0.1569063999999988,9.65955025
2026-03-26 15:55:58.638,-1.91229675,-0.1569063999999988,9.65955025
2026-03-26 15:55:58.876,-1.91229675,-0.1569063999999988,9.65955025
2026-03-26 15:55:59.135,-1.91229675,-0.1569063999999988,9.65955025
2026-03-26 15:55:59.396,-1.91229675,-0.1569063999999988,9.65955025
2026-03-26 15:55:59.635,-1.91229675,-0.1569063999999988,9.65955025
2026-03-26 15:55:59.880,-1.91229675,-0.1569063999999988,9.65955025
2026-03-26 15:56:00.134,-1.91229675,-0.1569063999999988,9.65955025
2026-03-26 15:56:00.394,-1.91229675,-0.1569063999999988,9.65955025
2026-03-26 15:56:00.637,-1.91229675,-0.1569063999999988,9.65955025
2026-03-26 15:56:00.875,-1.91229675,-0.1569063999999988,9.6693569
2026-03-26 15:56:01.134,-1.91229675,-0.1569063999999988,9.65955025
2026-03-26 15:56:01.395,-1.91229675,-0.1569063999999988,9.65955025
2026-03-26 15:56:01.639,-1.91229675,-0.1569063999999988,9.65955025
2026-03-26 15:56:01.876,-1.91229675,-0.1569063999999988,9.65955025
2026-03-26 15:56:02.149,-1.91229675,-0.1569063999999988,9.6693569
2026-03-26 15:56:02.396,-1.91229675,-0.1569063999999988,9.65955025
2026-03-26 15:56:02.635,-1.91229675,-0.1569063999999988,9.65955025
2026-03-26 15:56:02.875,-1.91229675,-0.1569063999999988,9.65955025
2026-03-26 15:56:03.135,-1.91229675,-0.1569063999999988,9.65955025
2026-03-26 15:56:03.395,-1.91229675,-0.1569063999999988,9.65955025
2026-03-26 15:56:03.639,-1.91229675,-0.1569063999999988,9.65955025
2026-03-26 15:56:03.880,-1.91229675,-0.1569063999999988,9.65955025
2026-03-26 15:56:04.136,-1.91229675,-0.1569063999999988,9.65955025
2026-03-26 15:56:04.395,-1.91229675,-0.1569063999999988,9.65955025
2026-03-26 15:56:04.639,-1.9221034000000001,-0.1569063999999988,9.65955025
2026-03-26 15:56:04.879,-1.91229675,-0.1569063999999988,9.65955025
2026-03-26 15:56:05.134,-1.91229675,-0.1569063999999988,9.65955025
2026-03-26 15:56:05.395,-1.9221034000000001,-0.1569063999999988,9.65955025
2026-03-26 15:56:05.635,-1.91229675,-0.1569063999999988,9.65955025
2026-03-26 15:56:05.878,-1.91229675,-0.1569063999999988,9.6693569
2026-03-26 15:56:06.135,-1.91229675,-0.1569063999999988,9.65955025
2026-03-26 15:56:06.406,-1.91229675,-0.1569063999999988,9.65955025
2026-03-26 15:56:06.636,-1.91229675,-0.1569063999999988,9.65955025
2026-03-26 15:56:06.884,-1.91229675,-0.1569063999999988,9.65955025
2026-03-26 15:56:07.134,-1.91229675,-0.1569063999999988,9.65955025
2026-03-26 15:56:07.403,-1.91229675,-0.1569063999999988,9.65955025
2026-03-26 15:56:07.634,-1.91229675,-0.1569063999999988,9.65955025
2026-03-26 15:56:07.878,-1.91229675,-0.1569063999999988,9.65955025
2026-03-26 15:56:08.137,-1.91229675,-0.1569063999999988,9.65955025
2026-03-26 15:56:08.394,-1.91229675,-0.1569063999999988,9.65955025
2026-03-26 15:56:08.636,-1.91229675,-0.1569063999999988,9.65955025
2026-03-26 15:56:08.878,-1.91229675,-0.1569063999999988,9.65955025
2026-03-26 15:56:09.135,-1.91229675,-0.1569063999999988,9.65955025
2026-03-26 15:56:09.394,-1.91229675,-0.1569063999999988,9.65955025
2026-03-26 15:56:09.634,-1.91229675,-0.1569063999999988,9.65955025
2026-03-26 15:56:09.880,-1.91229675,-0.1569063999999988,9.65955025
2026-03-26 15:56:10.138,-1.91229675,-0.1569063999999988,9.65955025
2026-03-26 15:56:10.397,-1.91229675,-0.1569063999999988,9.65955025
2026-03-26 15:56:10.644,-1.91229675,-0.1569063999999988,9.65955025
2026-03-26 15:56:10.877,-1.91229675,-0.1569063999999988,9.65955025
2026-03-26 15:56:11.140,-1.91229675,-0.1569063999999988,9.65955025
2026-03-26 15:56:11.401,-1.91229675,-0.1569063999999988,9.65955025
2026-03-26 15:56:11.635,-1.91229675,-0.1667130499999988,9.65955025
2026-03-26 15:56:11.877,-1.91229675,-0.1569063999999988,9.65955025
2026-03-26 15:56:12.135,-1.91229675,-0.1569063999999988,9.65955025
2026-03-26 15:56:12.394,-1.91229675,-0.1569063999999988,9.65955025
2026-03-26 15:56:12.645,-1.91229675,-0.1569063999999988,9.65955025
2026-03-26 15:56:12.883,-1.9024901,-0.1667130499999988,9.65955025
2026-03-26 15:56:13.146,-1.91229675,-0.1569063999999988,9.65955025
2026-03-26 15:56:13.402,-1.91229675,-0.1569063999999988,9.65955025
2026-03-26 15:56:13.640,-1.91229675,-0.1569063999999988,9.65955025
2026-03-26 15:56:13.883,-1.91229675,-0.1569063999999988,9.65955025
2026-03-26 15:56:14.134,-1.91229675,-0.1569063999999988,9.65955025
2026-03-26 15:56:14.403,-1.91229675,-0.1569063999999988,9.65955025
2026-03-26 15:56:14.635,-1.91229675,-0.1667130499999988,9.6693569
2026-03-26 15:56:14.876,-1.91229675,-0.1569063999999988,9.65955025
2026-03-26 15:56:15.135,-1.91229675,-0.1569063999999988,9.65955025
2026-03-26 15:56:15.394,-1.91229675,-0.1667130499999988,9.65955025
2026-03-26 15:56:15.653,-1.91229675,-0.1569063999999988,9.65955025
2026-03-26 15:56:15.876,-1.91229675,-0.1569063999999988,9.65955025
2026-03-26 15:56:16.134,-1.91229675,-0.1569063999999988,9.65955025
2026-03-26 15:56:16.399,-1.91229675,-0.1569063999999988,9.65955025
2026-03-26 15:56:16.650,-1.91229675,-0.1569063999999988,9.65955025
2026-03-26 15:56:16.888,-1.91229675,-0.1569063999999988,9.65955025
2026-03-26 15:56:17.138,-1.91229675,-0.1569063999999988,9.65955025
2026-03-26 15:56:17.394,-1.91229675,-0.1569063999999988,9.65955025
2026-03-26 15:56:17.635,-1.91229675,-0.1569063999999988,9.65955025
2026-03-26 15:56:17.875,-1.91229675,-0.1569063999999988,9.65955025
2026-03-26 15:56:18.134,-1.91229675,-0.1569063999999988,9.65955025
2026-03-26 15:56:18.394,-1.91229675,-0.1569063999999988,9.65955025
2026-03-26 15:56:18.635,-1.91229675,-0.1569063999999988,9.65955025
2026-03-26 15:56:18.875,-1.91229675,-0.1569063999999988,9.65955025
2026-03-26 15:56:19.135,-1.91229675,-0.1569063999999988,9.65955025
2026-03-26 15:56:19.398,-1.91229675,-0.1569063999999988,9.65955025
2026-03-26 15:56:19.635,-1.91229675,-0.1569063999999988,9.65955025
2026-03-26 15:56:19.886,-1.91229675,-0.1569063999999988,9.65955025
2026-03-26 15:56:20.134,-1.91229675,-0.1569063999999988,9.65955025
2026-03-26 15:56:20.397,-1.91229675,-0.1569063999999988,9.65955025
2026-03-26 15:56:20.640,-1.91229675,-0.1569063999999988,9.65955025
2026-03-26 15:56:20.875,-1.91229675,-0.1569063999999988,9.65955025
2026-03-26 15:56:21.135,-1.91229675,-0.1569063999999988,9.65955025
2026-03-26 15:56:21.395,-1.91229675,-0.1569063999999988,9.65955025
2026-03-26 15:56:21.635,-1.91229675,-0.1569063999999988,9.65955025
2026-03-26 15:56:21.875,-1.91229675,-0.1569063999999988,9.65955025
2026-03-26 15:56:22.137,-1.91229675,-0.1569063999999988,9.65955025
2026-03-26 15:56:22.394,-1.91229675,-0.1569063999999988,9.65955025
2026-03-26 15:56:22.635,-1.9221034000000001,-0.1569063999999988,9.65955025
2026-03-26 15:56:22.874,-1.91229675,-0.1569063999999988,9.65955025
2026-03-26 15:56:23.136,-1.91229675,-0.1569063999999988,9.65955025
2026-03-26 15:56:23.394,-1.91229675,-0.1569063999999988,9.65955025
2026-03-26 15:56:23.636,-1.91229675,-0.1569063999999988,9.65955025
2026-03-26 15:56:23.875,-1.91229675,-0.1569063999999988,9.65955025
2026-03-26 15:56:24.143,-1.91229675,-0.1569063999999988,9.65955025
2026-03-26 15:56:24.401,-1.91229675,-0.1569063999999988,9.65955025
2026-03-26 15:56:24.637,-1.91229675,-0.1569063999999988,9.65955025
2026-03-26 15:56:24.878,-1.91229675,-0.1569063999999988,9.65955025
2026-03-26 15:56:25.138,-1.91229675,-0.1569063999999988,9.65955025
2026-03-26 15:56:25.408,-1.91229675,-0.1569063999999988,9.65955025
2026-03-26 15:56:25.636,-1.91229675,-0.1569063999999988,9.65955025
2026-03-26 15:56:25.875,-1.91229675,-0.1667130499999988,9.65955025
2026-03-26 15:56:26.135,-1.9024901,-0.1569063999999988,9.65955025
2026-03-26 15:56:26.396,-1.91229675,-0.1569063999999988,9.65955025
2026-03-26 15:56:26.634,-1.91229675,-0.1569063999999988,9.6693569
2026-03-26 15:56:26.883,-1.91229675,-0.1569063999999988,9.65955025
2026-03-26 15:56:27.134,-1.91229675,-0.1569063999999988,9.65955025
2026-03-26 15:56:27.394,-1.91229675,-0.1569063999999988,9.65955025
2026-03-26 15:56:27.634,-1.91229675,-0.1569063999999988,9.65955025
2026-03-26 15:56:27.877,-1.91229675,-0.1569063999999988,9.6693569
2026-03-26 15:56:28.133,-1.91229675,-0.1569063999999988,9.65955025
2026-03-26 15:56:28.397,-1.91229675,-0.1569063999999988,9.65955025
2026-03-26 15:56:28.635,-1.91229675,-0.1569063999999988,9.6693569
2026-03-26 15:56:28.880,-1.91229675,-0.1569063999999988,9.65955025
2026-03-26 15:56:29.135,-1.91229675,-0.1569063999999988,9.65955025
2026-03-26 15:56:29.393,-1.91229675,-0.1569063999999988,9.65955025
2026-03-26 15:56:29.636,-1.91229675,-0.1569063999999988,9.65955025
2026-03-26 15:56:29.877,-1.91229675,-0.1569063999999988,9.65955025
2026-03-26 15:56:30.134,-1.91229675,-0.1569063999999988,9.65955025
2026-03-26 15:56:30.394,-1.91229675,-0.1569063999999988,9.65955025
2026-03-26 15:56:30.635,-1.91229675,-0.1569063999999988,9.65955025
2026-03-26 15:56:30.875,-1.91229675,-0.1569063999999988,9.65955025
2026-03-26 15:56:31.137,-1.91229675,-0.1569063999999988,9.65955025
2026-03-26 15:56:31.394,-1.91229675,-0.1569063999999988,9.65955025
2026-03-26 15:56:31.642,-1.91229675,-0.1569063999999988,9.65955025
2026-03-26 15:56:31.876,-1.91229675,-0.1569063999999988,9.65955025
2026-03-26 15:56:32.135,-1.91229675,-0.1569063999999988,9.65955025
2026-03-26 15:56:32.395,-1.91229675,-0.1569063999999988,9.65955025
2026-03-26 15:56:32.637,-1.9024901,-0.1569063999999988,9.65955025
2026-03-26 15:56:32.876,-1.91229675,-0.1569063999999988,9.65955025
2026-03-26 15:56:33.139,-1.91229675,-0.1569063999999988,9.65955025
2026-03-26 15:56:33.394,-1.91229675,-0.1569063999999988,9.65955025
2026-03-26 15:56:33.638,-1.91229675,-0.1569063999999988,9.65955025
2026-03-26 15:56:33.875,-1.91229675,-0.1569063999999988,9.65955025
2026-03-26 15:56:34.138,-1.91229675,-0.1569063999999988,9.65955025
2026-03-26 15:56:34.399,-1.91229675,-0.1569063999999988,9.65955025
2026-03-26 15:56:34.640,-1.91229675,-0.1569063999999988,9.65955025
2026-03-26 15:56:34.874,-1.91229675,-0.1569063999999988,9.65955025
2026-03-26 15:56:35.135,-1.91229675,-0.1569063999999988,9.65955025
2026-03-26 15:56:35.399,-1.91229675,-0.1569063999999988,9.65955025
2026-03-26 15:56:35.640,-1.91229675,-0.1569063999999988,9.65955025
2026-03-26 15:56:35.875,-1.91229675,-0.1569063999999988,9.65955025
2026-03-26 15:56:36.140,-1.91229675,-0.1569063999999988,9.65955025
2026-03-26 15:56:36.394,-1.91229675,-0.1569063999999988,9.65955025
2026-03-26 15:56:36.635,-1.91229675,-0.1569063999999988,9.65955025
2026-03-26 15:56:36.881,-1.91229675,-0.1569063999999988,9.65955025
2026-03-26 15:56:37.135,-1.91229675,-0.1569063999999988,9.65955025
2026-03-26 15:56:37.394,-1.91229675,-0.1569063999999988,9.65955025
2026-03-26 15:56:37.641,-1.91229675,-0.1569063999999988,9.65955025
2026-03-26 15:56:37.876,-1.91229675,-0.1569063999999988,9.65955025
2026-03-26 15:56:38.140,-1.91229675,-0.1569063999999988,9.65955025
2026-03-26 15:56:38.432,-1.91229675,-0.1569063999999988,9.65955025
2026-03-26 15:56:38.639,-1.91229675,-0.1569063999999988,9.65955025
2026-03-26 15:56:38.876,-1.91229675,-0.1569063999999988,9.65955025
2026-03-26 15:56:39.138,-1.91229675,-0.1569063999999988,9.65955025
2026-03-26 15:56:39.398,-1.91229675,-0.1569063999999988,9.65955025
2026-03-26 15:56:39.634,-1.91229675,-0.1569063999999988,9.65955025
2026-03-26 15:56:39.875,-1.91229675,-0.1569063999999988,9.65955025
2026-03-26 15:56:40.138,-1.91229675,-0.1569063999999988,9.65955025
2026-03-26 15:56:40.401,-1.91229675,-0.1569063999999988,9.65955025
2026-03-26 15:56:40.634,-1.91229675,-0.1569063999999988,9.65955025
2026-03-26 15:56:40.875,-1.91229675,-0.1569063999999988,9.65955025
2026-03-26 15:56:41.134,-1.91229675,-0.1569063999999988,9.65955025
2026-03-26 15:56:41.397,-1.91229675,-0.1569063999999988,9.65955025
2026-03-26 15:56:41.637,-1.91229675,-0.1569063999999988,9.65955025
2026-03-26 15:56:41.881,-1.91229675,-0.1569063999999988,9.65955025
2026-03-26 15:56:42.134,-1.91229675,-0.1569063999999988,9.65955025
2026-03-26 15:56:42.394,-1.91229675,-0.1569063999999988,9.65955025
2026-03-26 15:56:42.637,-1.91229675,-0.1569063999999988,9.65955025
2026-03-26 15:56:42.875,-1.91229675,-0.1569063999999988,9.65955025
2026-03-26 15:56:43.161,-1.91229675,-0.1569063999999988,9.6693569
2026-03-26 15:56:43.397,-1.91229675,-0.1569063999999988,9.65955025
2026-03-26 15:56:43.647,-1.91229675,-0.1569063999999988,9.65955025
2026-03-26 15:56:43.889,-1.91229675,-0.1569063999999988,9.65955025
2026-03-26 15:56:44.134,-1.91229675,-0.1569063999999988,9.65955025
2026-03-26 15:56:44.394,-1.91229675,-0.1569063999999988,9.6693569
2026-03-26 15:56:44.635,-1.91229675,-0.1569063999999988,9.65955025
2026-03-26 15:56:44.874,-1.91229675,-0.1569063999999988,9.65955025
2026-03-26 15:56:45.134,-1.91229675,-0.1569063999999988,9.65955025
2026-03-26 15:56:45.395,-1.91229675,-0.1569063999999988,9.65955025
2026-03-26 15:56:45.643,-1.91229675,-0.1667130499999988,9.65955025
2026-03-26 15:56:45.878,-1.91229675,-0.1569063999999988,9.65955025
2026-03-26 15:56:46.133,-1.9024901,-0.1667130499999988,9.65955025
2026-03-26 15:56:46.395,-1.91229675,-0.1667130499999988,9.65955025
2026-03-26 15:56:46.645,-1.9024901,-0.1569063999999988,9.65955025
2026-03-26 15:56:46.876,-1.91229675,-0.1569063999999988,9.65955025
2026-03-26 15:56:47.137,-1.91229675,-0.1569063999999988,9.6497436
2026-03-26 15:56:47.395,-1.91229675,-0.1569063999999988,9.65955025
2026-03-26 15:56:47.636,-1.91229675,-0.1569063999999988,9.65955025
2026-03-26 15:56:47.880,-1.91229675,-0.1569063999999988,9.65955025
2026-03-26 15:56:48.135,-1.91229675,-0.1569063999999988,9.65955025
2026-03-26 15:56:48.397,-1.91229675,-0.1569063999999988,9.65955025
2026-03-26 15:56:48.638,-1.91229675,-0.1667130499999988,9.65955025
2026-03-26 15:56:48.878,-1.91229675,-0.1569063999999988,9.65955025
2026-03-26 15:56:49.133,-1.91229675,-0.1569063999999988,9.65955025
2026-03-26 15:56:49.395,-1.91229675,-0.1569063999999988,9.65955025
2026-03-26 15:56:49.635,-1.91229675,-0.1569063999999988,9.65955025
2026-03-26 15:56:49.893,-1.91229675,-0.1569063999999988,9.65955025
2026-03-26 15:56:50.135,-1.91229675,-0.1569063999999988,9.65955025
2026-03-26 15:56:50.395,-1.91229675,-0.1569063999999988,9.65955025
2026-03-26 15:56:50.634,-1.91229675,-0.1569063999999988,9.65955025
2026-03-26 15:56:50.879,-1.91229675,-0.1569063999999988,9.65955025
2026-03-26 15:56:51.136,-1.91229675,-0.1569063999999988,9.65955025
2026-03-26 15:56:51.394,-1.91229675,-0.1569063999999988,9.65955025
2026-03-26 15:56:51.644,-1.91229675,-0.1569063999999988,9.65955025
2026-03-26 15:56:51.875,-1.91229675,-0.1569063999999988,9.65955025
2026-03-26 15:56:52.133,-1.91229675,-0.1569063999999988,9.65955025
2026-03-26 15:56:52.394,-1.91229675,-0.1569063999999988,9.65955025
2026-03-26 15:56:52.634,-1.91229675,-0.1569063999999988,9.65955025
2026-03-26 15:56:52.875,-1.91229675,-0.1569063999999988,9.65955025
2026-03-26 15:56:53.134,-1.91229675,-0.1569063999999988,9.65955025
2026-03-26 15:56:53.400,-1.91229675,-0.1569063999999988,9.65955025
2026-03-26 15:56:53.633,-1.91229675,-0.1569063999999988,9.65955025
2026-03-26 15:56:53.876,-1.91229675,-0.1569063999999988,9.65955025
2026-03-26 15:56:54.139,-1.9024901,-0.1569063999999988,9.65955025
2026-03-26 15:56:54.394,-1.91229675,-0.1569063999999988,9.65955025
2026-03-26 15:56:54.636,-1.91229675,-0.1569063999999988,9.65955025
2026-03-26 15:56:54.874,-1.91229675,-0.1569063999999988,9.65955025
2026-03-26 15:56:55.134,-1.91229675,-0.1569063999999988,9.65955025
2026-03-26 15:56:55.393,-1.91229675,-0.1569063999999988,9.65955025
2026-03-26 15:56:55.634,-1.91229675,-0.1569063999999988,9.65955025
2026-03-26 15:56:55.876,-1.91229675,-0.1569063999999988,9.65955025
2026-03-26 15:56:56.133,-1.91229675,-0.1667130499999988,9.65955025
2026-03-26 15:56:56.395,-1.91229675,-0.1569063999999988,9.65955025
2026-03-26 15:56:56.636,-1.91229675,-0.1569063999999988,9.6693569
2026-03-26 15:56:56.874,-1.91229675,-0.1569063999999988,9.65955025
2026-03-26 15:56:57.138,-1.91229675,-0.1569063999999988,9.65955025
2026-03-26 15:56:57.393,-1.91229675,-0.1569063999999988,9.65955025
2026-03-26 15:56:57.643,-1.91229675,-0.1569063999999988,9.65955025
2026-03-26 15:56:57.877,-1.91229675,-0.1569063999999988,9.65955025
2026-03-26 15:56:58.134,-1.91229675,-0.1569063999999988,9.65955025
2026-03-26 15:56:58.394,-1.91229675,-0.1569063999999988,9.65955025
2026-03-26 15:56:58.634,-1.91229675,-0.1569063999999988,9.65955025
2026-03-26 15:56:58.880,-1.91229675,-0.1569063999999988,9.65955025
2026-03-26 15:56:59.133,-1.91229675,-0.1569063999999988,9.65955025
2026-03-26 15:56:59.399,-1.91229675,-0.1569063999999988,9.65955025
2026-03-26 15:56:59.657,-1.9024901,-0.1569063999999988,9.65955025
2026-03-26 15:56:59.876,-1.91229675,-0.1569063999999988,9.65955025
2026-03-26 15:57:00.144,-1.9024901,-0.1569063999999988,9.65955025
2026-03-26 15:57:00.394,-1.91229675,-0.1569063999999988,9.65955025
2026-03-26 15:57:00.635,-1.91229675,-0.1569063999999988,9.65955025
2026-03-26 15:57:00.878,-1.91229675,-0.1569063999999988,9.65955025
2026-03-26 15:57:01.136,-1.91229675,-0.1569063999999988,9.65955025
2026-03-26 15:57:01.394,-1.91229675,-0.1569063999999988,9.65955025
2026-03-26 15:57:01.635,-1.91229675,-0.1569063999999988,9.65955025
2026-03-26 15:57:01.875,-1.91229675,-0.1569063999999988,9.65955025
2026-03-26 15:57:02.133,-1.91229675,-0.1569063999999988,9.65955025
2026-03-26 15:57:02.398,-1.91229675,-0.1569063999999988,9.65955025
2026-03-26 15:57:02.634,-1.91229675,-0.1569063999999988,9.65955025
2026-03-26 15:57:02.878,-1.91229675,-0.1667130499999988,9.65955025
2026-03-26 15:57:03.133,-1.91229675,-0.1569063999999988,9.65955025
2026-03-26 15:57:03.394,-1.91229675,-0.1569063999999988,9.65955025
2026-03-26 15:57:03.637,-1.91229675,-0.1569063999999988,9.65955025
2026-03-26 15:57:03.874,-1.91229675,-0.1569063999999988,9.6693569
2026-03-26 15:57:04.153,-1.91229675,-0.1569063999999988,9.65955025
2026-03-26 15:57:04.394,-1.91229675,-0.1569063999999988,9.65955025
2026-03-26 15:57:04.634,-1.91229675,-0.1569063999999988,9.65955025
2026-03-26 15:57:04.876,-1.91229675,-0.1569063999999988,9.65955025
2026-03-26 15:57:05.135,-1.91229675,-0.1667130499999988,9.6497436
2026-03-26 15:57:05.395,-1.91229675,-0.1569063999999988,9.6693569
2026-03-26 15:57:05.638,-1.91229675,-0.1569063999999988,9.65955025
2026-03-26 15:57:05.877,-1.91229675,-0.1569063999999988,9.65955025
2026-03-26 15:57:06.133,-1.91229675,-0.1569063999999988,9.65955025
2026-03-26 15:57:06.394,-1.91229675,-0.1569063999999988,9.65955025
2026-03-26 15:57:06.633,-1.91229675,-0.1569063999999988,9.65955025
2026-03-26 15:57:06.877,-1.91229675,-0.1569063999999988,9.65955025
2026-03-26 15:57:07.136,-1.91229675,-0.1569063999999988,9.65955025
2026-03-26 15:57:07.401,-1.91229675,-0.1667130499999988,9.65955025
2026-03-26 15:57:07.634,-1.91229675,-0.1569063999999988,9.6693569
2026-03-26 15:57:07.877,-1.91229675,-0.1569063999999988,9.6497436
2026-03-26 15:57:08.134,-1.91229675,-0.1569063999999988,9.65955025
2026-03-26 15:57:08.393,-1.9024901,-0.1569063999999988,9.65955025
2026-03-26 15:57:08.634,-1.9221034000000001,-0.1470997499999988,9.6693569
2026-03-26 15:57:08.874,-1.9221034000000001,-0.1569063999999988,9.65955025
2026-03-26 15:57:09.134,-1.9221034000000001,-0.1569063999999988,9.65955025
2026-03-26 15:57:09.395,-1.91229675,-0.1569063999999988,9.65955025
2026-03-26 15:57:09.639,-1.91229675,-0.1569063999999988,9.65955025
2026-03-26 15:57:09.876,-1.91229675,-0.1569063999999988,9.65955025
2026-03-26 15:57:10.148,-1.91229675,-0.1470997499999988,9.65955025
2026-03-26 15:57:10.394,-1.9024901,-0.1569063999999988,9.65955025
2026-03-26 15:57:10.637,-1.91229675,-0.1569063999999988,9.65955025
2026-03-26 15:57:10.876,-1.91229675,-0.1667130499999988,9.65955025
2026-03-26 15:57:11.134,-1.91229675,-0.1569063999999988,9.65955025
2026-03-26 15:57:11.394,-1.91229675,-0.1569063999999988,9.65955025
2026-03-26 15:57:11.633,-1.91229675,-0.1667130499999988,9.65955025
2026-03-26 15:57:11.877,-1.91229675,-0.1569063999999988,9.65955025
2026-03-26 15:57:12.134,-1.9221034000000001,-0.1569063999999988,9.6497436
2026-03-26 15:57:12.394,-1.9221034000000001,-0.1569063999999988,9.65955025
2026-03-26 15:57:12.634,-1.91229675,-0.1569063999999988,9.65955025
2026-03-26 15:57:12.882,-1.91229675,-0.1569063999999988,9.65955025
2026-03-26 15:57:13.134,-1.91229675,-0.1569063999999988,9.65955025
2026-03-26 15:57:13.395,-1.91229675,-0.1569063999999988,9.65955025
2026-03-26 15:57:13.634,-1.91229675,-0.1569063999999988,9.6693569
2026-03-26 15:57:13.882,-1.91229675,-0.1569063999999988,9.65955025
2026-03-26 15:57:14.133,-1.91229675,-0.1569063999999988,9.65955025
2026-03-26 15:57:14.404,-1.91229675,-0.1470997499999988,9.65955025
2026-03-26 15:57:14.633,-1.91229675,-0.1569063999999988,9.65955025
2026-03-26 15:57:14.893,-1.91229675,-0.1569063999999988,9.65955025
2026-03-26 15:57:15.135,-1.91229675,-0.1569063999999988,9.65955025
2026-03-26 15:57:15.393,-1.9221034000000001,-0.1569063999999988,9.6693569
2026-03-26 15:57:15.634,-1.91229675,-0.1569063999999988,9.6497436
2026-03-26 15:57:15.877,-1.91229675,-0.1569063999999988,9.65955025
2026-03-26 15:57:16.137,-1.91229675,-0.1470997499999988,9.65955025
2026-03-26 15:57:16.395,-1.91229675,-0.1569063999999988,9.65955025
2026-03-26 15:57:16.640,-1.9221034000000001,-0.1569063999999988,9.65955025
2026-03-26 15:57:16.875,-1.91229675,-0.1470997499999988,9.6497436
2026-03-26 15:57:17.134,-1.91229675,-0.1569063999999988,9.6693569
2026-03-26 15:57:17.398,-1.91229675,-0.1470997499999988,9.65955025
2026-03-26 15:57:17.634,-1.91229675,-0.1569063999999988,9.65955025
2026-03-26 15:57:17.880,-1.9221034000000001,-0.1470997499999988,9.65955025
2026-03-26 15:57:18.134,-1.91229675,-0.1569063999999988,9.65955025
2026-03-26 15:57:18.394,-1.9221034000000001,-0.1569063999999988,9.65955025
2026-03-26 15:57:18.634,-1.91229675,-0.1569063999999988,9.65955025
2026-03-26 15:57:18.876,-1.91229675,-0.1569063999999988,9.65955025
2026-03-26 15:57:19.141,-1.91229675,-0.1569063999999988,9.65955025
2026-03-26 15:57:19.394,-1.91229675,-0.1569063999999988,9.65955025
2026-03-26 15:57:19.638,-1.9221034000000001,-0.1569063999999988,9.65955025
2026-03-26 15:57:19.880,-1.91229675,-0.1569063999999988,9.65955025
2026-03-26 15:57:20.134,-1.9221034000000001,-0.1569063999999988,9.65955025
2026-03-26 15:57:20.395,-1.91229675,-0.1569063999999988,9.65955025
2026-03-26 15:57:20.640,-1.91229675,-0.1569063999999988,9.65955025
2026-03-26 15:57:20.874,-1.91229675,-0.1569063999999988,9.65955025
2026-03-26 15:57:21.135,-1.91229675,-0.1569063999999988,9.65955025
2026-03-26 15:57:21.398,-1.91229675,-0.1569063999999988,9.65955025
2026-03-26 15:57:21.633,-1.91229675,-0.1569063999999988,9.65955025
2026-03-26 15:57:21.874,-1.91229675,-0.1569063999999988,9.65955025
2026-03-26 15:57:22.143,-1.91229675,-0.1569063999999988,9.65955025
2026-03-26 15:57:22.393,-1.91229675,-0.1569063999999988,9.65955025
2026-03-26 15:57:22.635,-1.91229675,-0.1569063999999988,9.65955025
2026-03-26 15:57:22.874,-1.9221034000000001,-0.1569063999999988,9.65955025
2026-03-26 15:57:23.135,-1.91229675,-0.1470997499999988,9.65955025
2026-03-26 15:57:23.395,-1.91229675,-0.1470997499999988,9.65955025
2026-03-26 15:57:23.633,-1.9221034000000001,-0.1569063999999988,9.65955025
2026-03-26 15:57:23.879,-1.91229675,-0.1569063999999988,9.65955025
2026-03-26 15:57:24.134,-1.9221034000000001,-0.1569063999999988,9.65955025
2026-03-26 15:57:24.394,-1.91229675,-0.1569063999999988,9.65955025
2026-03-26 15:57:24.633,-1.91229675,-0.1569063999999988,9.65955025
2026-03-26 15:57:24.874,-1.91229675,-0.1569063999999988,9.65955025
2026-03-26 15:57:25.141,-1.9221034000000001,-0.1569063999999988,9.65955025
2026-03-26 15:57:25.394,-1.91229675,-0.1569063999999988,9.65955025
2026-03-26 15:57:25.634,-1.91229675,-0.1569063999999988,9.65955025
2026-03-26 15:57:25.874,-1.9221034000000001,-0.1569063999999988,9.65955025
2026-03-26 15:57:26.133,-1.91229675,-0.1569063999999988,9.65955025
2026-03-26 15:57:26.400,-1.91229675,-0.1569063999999988,9.65955025
2026-03-26 15:57:26.636,-1.91229675,-0.1569063999999988,9.65955025
2026-03-26 15:57:26.878,-1.91229675,-0.1569063999999988,9.65955025
2026-03-26 15:57:27.133,-1.91229675,-0.1569063999999988,9.65955025
2026-03-26 15:57:27.393,-1.91229675,-0.1569063999999988,9.65955025
2026-03-26 15:57:27.634,-1.9221034000000001,-0.1569063999999988,9.65955025
2026-03-26 15:57:27.875,-1.91229675,-0.1569063999999988,9.65955025
2026-03-26 15:57:28.133,-1.91229675,-0.1569063999999988,9.65955025
2026-03-26 15:57:28.396,-1.91229675,-0.1569063999999988,9.65955025
2026-03-26 15:57:28.634,-1.91229675,-0.1569063999999988,9.65955025
2026-03-26 15:57:28.874,-1.91229675,-0.1569063999999988,9.65955025
2026-03-26 15:57:29.133,-1.91229675,-0.1569063999999988,9.65955025
2026-03-26 15:57:29.395,-1.91229675,-0.1569063999999988,9.65955025
2026-03-26 15:57:29.635,-1.91229675,-0.1569063999999988,9.65955025
2026-03-26 15:57:29.883,-1.91229675,-0.1569063999999988,9.65955025
2026-03-26 15:57:30.133,-1.91229675,-0.1569063999999988,9.6693569
2026-03-26 15:57:30.399,-1.91229675,-0.1569063999999988,9.65955025
2026-03-26 15:57:30.633,-1.91229675,-0.1569063999999988,9.65955025
2026-03-26 15:57:30.873,-1.91229675,-0.1569063999999988,9.65955025
2026-03-26 15:57:31.134,-1.9221034000000001,-0.1569063999999988,9.65955025
2026-03-26 15:57:31.394,-1.91229675,-0.1470997499999988,9.65955025
2026-03-26 15:57:31.633,-1.91229675,-0.1569063999999988,9.65955025
2026-03-26 15:57:31.874,-1.91229675,-0.1569063999999988,9.65955025
2026-03-26 15:57:32.143,-1.91229675,-0.1569063999999988,9.65955025
2026-03-26 15:57:32.393,-1.91229675,-0.1569063999999988,9.65955025
2026-03-26 15:57:32.638,-1.91229675,-0.1569063999999988,9.6497436
2026-03-26 15:57:32.876,-1.89268345,-0.1372930999999988,9.65955025
2026-03-26 15:57:33.133,-1.9024901,-0.1470997499999988,9.6497436
2026-03-26 15:57:33.393,-1.91229675,-0.1569063999999988,9.65955025
2026-03-26 15:57:33.644,-1.91229675,-0.1569063999999988,9.65955025
2026-03-26 15:57:33.873,-1.91229675,-0.1569063999999988,9.65955025
2026-03-26 15:57:34.134,-1.91229675,-0.1569063999999988,9.65955025
2026-03-26 15:57:34.399,-1.91229675,-0.1470997499999988,9.65955025
2026-03-26 15:57:34.635,-1.9221034000000001,-0.1470997499999988,9.6693569
2026-03-26 15:57:34.875,-1.91229675,-0.1470997499999988,9.65955025
2026-03-26 15:57:35.135,-1.91229675,-0.1569063999999988,9.65955025
2026-03-26 15:57:35.393,-1.91229675,-0.1667130499999988,9.6497436
2026-03-26 15:57:35.633,-1.91229675,-0.1569063999999988,9.65955025
2026-03-26 15:57:35.876,-1.91229675,-0.1470997499999988,9.65955025
2026-03-26 15:57:36.142,-1.91229675,-0.1470997499999988,9.65955025
2026-03-26 15:57:36.394,-1.91229675,-0.1569063999999988,9.65955025
2026-03-26 15:57:36.634,-1.9221034000000001,-0.1470997499999988,9.6693569
2026-03-26 15:57:36.879,-1.9221034000000001,-0.1470997499999988,9.65955025
2026-03-26 15:57:37.134,-1.91229675,-0.1569063999999988,9.65955025
2026-03-26 15:57:37.393,-1.9221034000000001,-0.1470997499999988,9.65955025
2026-03-26 15:57:37.634,-1.9221034000000001,-0.1470997499999988,9.65955025
2026-03-26 15:57:37.880,-1.91229675,-0.1470997499999988,9.65955025
2026-03-26 15:57:38.150,-1.9221034000000001,-0.1372930999999988,9.6693569
2026-03-26 15:57:38.399,-1.91229675,-0.1569063999999988,9.65955025
2026-03-26 15:57:38.633,-1.91229675,-0.1569063999999988,9.65955025
2026-03-26 15:57:38.874,-1.9221034000000001,-0.1569063999999988,9.65955025
2026-03-26 15:57:39.134,-1.91229675,-0.1569063999999988,9.65955025
2026-03-26 15:57:39.396,-1.9221034000000001,-0.1470997499999988,9.65955025
2026-03-26 15:57:39.634,-1.91229675,-0.1470997499999988,9.65955025
2026-03-26 15:57:39.873,-1.91229675,-0.1470997499999988,9.65955025
2026-03-26 15:57:40.134,-1.9221034000000001,-0.1569063999999988,9.65955025
2026-03-26 15:57:40.398,-1.91229675,-0.1569063999999988,9.65955025
2026-03-26 15:57:40.633,-1.91229675,-0.1569063999999988,9.65955025
2026-03-26 15:57:40.875,-1.91229675,-0.1569063999999988,9.65955025
2026-03-26 15:57:41.134,-1.91229675,-0.1470997499999988,9.65955025
2026-03-26 15:57:41.393,-1.91229675,-0.1569063999999988,9.65955025
2026-03-26 15:57:41.634,-1.91229675,-0.1470997499999988,9.65955025
2026-03-26 15:57:41.874,-1.91229675,-0.1569063999999988,9.65955025
2026-03-26 15:57:42.133,-1.9221034000000001,-0.1569063999999988,9.65955025
2026-03-26 15:57:42.396,-1.9221034000000001,-0.1569063999999988,9.65955025
2026-03-26 15:57:42.634,-1.91229675,-0.1569063999999988,9.65955025
2026-03-26 15:57:42.874,-1.9221034000000001,-0.1470997499999988,9.65955025
2026-03-26 15:57:43.133,-1.9221034000000001,-0.1470997499999988,9.65955025
2026-03-26 15:57:43.395,-1.9221034000000001,-0.1569063999999988,9.65955025
2026-03-26 15:57:43.638,-1.91229675,-0.1470997499999988,9.65955025
2026-03-26 15:57:43.873,-1.91229675,-0.1569063999999988,9.65955025
2026-03-26 15:57:44.137,-1.91229675,-0.1470997499999988,9.65955025
2026-03-26 15:57:44.394,-1.91229675,-0.1569063999999988,9.65955025
2026-03-26 15:57:44.639,-1.9221034000000001,-0.1569063999999988,9.65955025
2026-03-26 15:57:44.874,-1.91229675,-0.1470997499999988,9.65955025
2026-03-26 15:57:45.135,-1.9221034000000001,-0.1470997499999988,9.65955025
2026-03-26 15:57:45.400,-1.9221034000000001,-0.1470997499999988,9.6497436
2026-03-26 15:57:45.633,-1.91229675,-0.1470997499999988,9.65955025
2026-03-26 15:57:45.874,-1.91229675,-0.1569063999999988,9.65955025
2026-03-26 15:57:46.136,-1.91229675,-0.1569063999999988,9.65955025
2026-03-26 15:57:46.402,-1.9221034000000001,-0.1470997499999988,9.65955025
2026-03-26 15:57:46.639,-1.91229675,-0.1569063999999988,9.65955025
2026-03-26 15:57:46.873,-1.91229675,-0.1569063999999988,9.65955025
2026-03-26 15:57:47.149,-1.9221034000000001,-0.1569063999999988,9.65955025
2026-03-26 15:57:47.395,-1.9221034000000001,-0.1470997499999988,9.65955025
2026-03-26 15:57:47.633,-1.9221034000000001,-0.1470997499999988,9.65955025
2026-03-26 15:57:47.878,-1.91229675,-0.1470997499999988,9.65955025
2026-03-26 15:57:48.137,-1.91229675,-0.1470997499999988,9.65955025
2026-03-26 15:57:48.410,-1.91229675,-0.1470997499999988,9.65955025
2026-03-26 15:57:48.633,-1.91229675,-0.1569063999999988,9.65955025
2026-03-26 15:57:48.873,-1.91229675,-0.1470997499999988,9.65955025
2026-03-26 15:57:49.133,-1.91229675,-0.1569063999999988,9.65955025
2026-03-26 15:57:49.397,-1.91229675,-0.1470997499999988,9.65955025
2026-03-26 15:57:49.633,-1.91229675,-0.1569063999999988,9.65955025
2026-03-26 15:57:49.878,-1.91229675,-0.1569063999999988,9.65955025
2026-03-26 15:57:50.147,-1.91229675,-0.1569063999999988,9.65955025
2026-03-26 15:57:50.397,-1.91229675,-0.1569063999999988,9.65955025
2026-03-26 15:57:50.633,-1.91229675,-0.1470997499999988,9.65955025
2026-03-26 15:57:50.880,-1.9221034000000001,-0.1569063999999988,9.65955025
2026-03-26 15:57:51.133,-1.91229675,-0.1470997499999988,9.65955025
2026-03-26 15:57:51.393,-1.9221034000000001,-0.1569063999999988,9.65955025
2026-03-26 15:57:51.633,-1.91229675,-0.1569063999999988,9.65955025
2026-03-26 15:57:51.875,-1.91229675,-0.1569063999999988,9.65955025
2026-03-26 15:57:52.147,-1.9221034000000001,-0.1470997499999988,9.65955025
2026-03-26 15:57:52.393,-1.91229675,-0.1470997499999988,9.65955025
2026-03-26 15:57:52.636,-1.9221034000000001,-0.1470997499999988,9.65955025
2026-03-26 15:57:52.881,-1.91229675,-0.1470997499999988,9.65955025
2026-03-26 15:57:53.152,-1.91229675,-0.1470997499999988,9.65955025
2026-03-26 15:57:53.393,-1.9221034000000001,-0.1470997499999988,9.65955025
2026-03-26 15:57:53.633,-1.91229675,-0.1569063999999988,9.65955025
2026-03-26 15:57:53.874,-1.91229675,-0.1470997499999988,9.65955025
2026-03-26 15:57:54.133,-1.9221034000000001,-0.1569063999999988,9.65955025
2026-03-26 15:57:54.392,-1.91229675,-0.1569063999999988,9.65955025
2026-03-26 15:57:54.633,-1.91229675,-0.1569063999999988,9.65955025
2026-03-26 15:57:54.874,-1.91229675,-0.1470997499999988,9.65955025
2026-03-26 15:57:55.140,-1.91229675,-0.1569063999999988,9.65955025
2026-03-26 15:57:55.394,-1.91229675,-0.1569063999999988,9.65955025
2026-03-26 15:57:55.633,-1.91229675,-0.1569063999999988,9.65955025
2026-03-26 15:57:55.873,-1.91229675,-0.1470997499999988,9.65955025
2026-03-26 15:57:56.132,-1.91229675,-0.1569063999999988,9.65955025
2026-03-26 15:57:56.398,-1.91229675,-0.1470997499999988,9.65955025
2026-03-26 15:57:56.633,-1.9221034000000001,-0.1569063999999988,9.65955025
2026-03-26 15:57:56.875,-1.91229675,-0.1569063999999988,9.65955025
2026-03-26 15:57:57.135,-1.91229675,-0.1470997499999988,9.65955025
2026-03-26 15:57:57.394,-1.91229675,-0.1569063999999988,9.65955025
2026-03-26 15:57:57.653,-1.91229675,-0.1470997499999988,9.65955025
2026-03-26 15:57:57.874,-1.9221034000000001,-0.1569063999999988,9.65955025
2026-03-26 15:57:58.133,-1.91229675,-0.1569063999999988,9.65955025
2026-03-26 15:57:58.392,-1.91229675,-0.1569063999999988,9.65955025
2026-03-26 15:57:58.637,-1.91229675,-0.1569063999999988,9.65955025
2026-03-26 15:57:58.875,-1.91229675,-0.1569063999999988,9.65955025
2026-03-26 15:57:59.134,-1.91229675,-0.1569063999999988,9.65955025
2026-03-26 15:57:59.393,-1.9221034000000001,-0.1470997499999988,9.65955025
2026-03-26 15:57:59.633,-1.91229675,-0.1470997499999988,9.65955025
2026-03-26 15:57:59.875,-1.91229675,-0.1569063999999988,9.65955025
2026-03-26 15:58:00.135,-1.91229675,-0.1470997499999988,9.65955025
2026-03-26 15:58:00.400,-1.9221034000000001,-0.1470997499999988,9.65955025
2026-03-26 15:58:00.633,-1.91229675,-0.1470997499999988,9.65955025
2026-03-26 15:58:00.875,-1.9221034000000001,-0.1470997499999988,9.65955025
2026-03-26 15:58:01.134,-1.9221034000000001,-0.1569063999999988,9.65955025
2026-03-26 15:58:01.393,-1.91229675,-0.1470997499999988,9.65955025
2026-03-26 15:58:01.633,-1.9221034000000001,-0.1470997499999988,9.65955025
2026-03-26 15:58:01.879,-1.9221034000000001,-0.1569063999999988,9.65955025
2026-03-26 15:58:02.134,-1.91229675,-0.1470997499999988,9.65955025
2026-03-26 15:58:02.393,-1.9221034000000001,-0.1470997499999988,9.65955025
2026-03-26 15:58:02.635,-1.91229675,-0.1569063999999988,9.65955025
2026-03-26 15:58:02.878,-1.9221034000000001,-0.1470997499999988,9.65955025
2026-03-26 15:58:03.132,-1.91229675,-0.1470997499999988,9.65955025
2026-03-26 15:58:03.399,-1.91229675,-0.1470997499999988,9.65955025
2026-03-26 15:58:03.636,-1.91229675,-0.1569063999999988,9.65955025
2026-03-26 15:58:03.876,-1.9221034000000001,-0.1470997499999988,9.65955025
2026-03-26 15:58:04.133,-1.91229675,-0.1470997499999988,9.65955025
2026-03-26 15:58:04.395,-1.91229675,-0.1569063999999988,9.65955025
2026-03-26 15:58:04.633,-1.9221034000000001,-0.1470997499999988,9.65955025
2026-03-26 15:58:04.874,-1.9221034000000001,-0.1569063999999988,9.65955025
2026-03-26 15:58:05.133,-1.91229675,-0.1569063999999988,9.65955025
2026-03-26 15:58:05.399,-1.91229675,-0.1470997499999988,9.65955025
2026-03-26 15:58:05.633,-1.91229675,-0.1569063999999988,9.65955025
2026-03-26 15:58:05.883,-1.9221034000000001,-0.1569063999999988,9.65955025
2026-03-26 15:58:06.133,-1.91229675,-0.1470997499999988,9.65955025
2026-03-26 15:58:06.392,-1.91229675,-0.1569063999999988,9.65955025
2026-03-26 15:58:06.634,-1.9221034000000001,-0.1569063999999988,9.65955025
2026-03-26 15:58:06.879,-1.9221034000000001,-0.1470997499999988,9.65955025
2026-03-26 15:58:07.132,-1.9221034000000001,-0.1470997499999988,9.65955025
2026-03-26 15:58:07.395,-1.91229675,-0.1470997499999988,9.65955025
2026-03-26 15:58:07.634,-1.9221034000000001,-0.1569063999999988,9.65955025
2026-03-26 15:58:07.873,-1.9221034000000001,-0.1470997499999988,9.65955025
2026-03-26 15:58:08.132,-1.91229675,-0.1470997499999988,9.65955025
2026-03-26 15:58:08.403,-1.9221034000000001,-0.1470997499999988,9.65955025
2026-03-26 15:58:08.636,-1.91229675,-0.1470997499999988,9.65955025
2026-03-26 15:58:08.874,-1.9221034000000001,-0.1470997499999988,9.65955025
2026-03-26 15:58:09.135,-1.91229675,-0.1470997499999988,9.65955025
2026-03-26 15:58:09.393,-1.91229675,-0.1569063999999988,9.65955025
2026-03-26 15:58:09.633,-1.91229675,-0.1569063999999988,9.65955025
2026-03-26 15:58:09.874,-1.91229675,-0.1470997499999988,9.65955025
2026-03-26 15:58:10.135,-1.91229675,-0.1470997499999988,9.65955025
2026-03-26 15:58:10.394,-1.91229675,-0.1470997499999988,9.65955025
2026-03-26 15:58:10.635,-1.9221034000000001,-0.1569063999999988,9.65955025
2026-03-26 15:58:10.873,-1.91229675,-0.1470997499999988,9.65955025
2026-03-26 15:58:11.133,-1.91229675,-0.1569063999999988,9.65955025
2026-03-26 15:58:11.394,-1.91229675,-0.1569063999999988,9.65955025
2026-03-26 15:58:11.634,-1.91229675,-0.1569063999999988,9.65955025
2026-03-26 15:58:11.875,-1.91229675,-0.1569063999999988,9.65955025
2026-03-26 15:58:12.133,-1.9221034000000001,-0.1470997499999988,9.65955025
2026-03-26 15:58:12.393,-1.91229675,-0.1569063999999988,9.65955025
2026-03-26 15:58:12.633,-1.9221034000000001,-0.1569063999999988,9.65955025
2026-03-26 15:58:12.875,-1.91229675,-0.1470997499999988,9.65955025
2026-03-26 15:58:13.139,-1.91229675,-0.1470997499999988,9.65955025
2026-03-26 15:58:13.397,-1.9221034000000001,-0.1569063999999988,9.65955025
2026-03-26 15:58:13.634,-1.91229675,-0.1569063999999988,9.65955025
2026-03-26 15:58:13.875,-1.91229675,-0.1470997499999988,9.65955025
2026-03-26 15:58:14.133,-1.91229675,-0.1569063999999988,9.65955025
2026-03-26 15:58:14.392,-1.9221034000000001,-0.1569063999999988,9.6693569
2026-03-26 15:58:14.635,-1.91229675,-0.1569063999999988,9.65955025
2026-03-26 15:58:14.877,-1.9221034000000001,-0.1470997499999988,9.65955025
2026-03-26 15:58:15.134,-1.9221034000000001,-0.1470997499999988,9.65955025
2026-03-26 15:58:15.395,-1.9221034000000001,-0.1470997499999988,9.65955025
2026-03-26 15:58:15.636,-1.91229675,-0.1569063999999988,9.65955025
2026-03-26 15:58:15.877,-1.91229675,-0.1569063999999988,9.65955025
2026-03-26 15:58:16.137,-1.9221034000000001,-0.1470997499999988,9.65955025
2026-03-26 15:58:16.394,-1.9221034000000001,-0.1569063999999988,9.65955025
2026-03-26 15:58:16.640,-1.91229675,-0.1569063999999988,9.65955025
2026-03-26 15:58:16.873,-1.91229675,-0.1470997499999988,9.65955025
2026-03-26 15:58:17.133,-1.9221034000000001,-0.1470997499999988,9.65955025
2026-03-26 15:58:17.394,-1.91229675,-0.1470997499999988,9.65955025
2026-03-26 15:58:17.633,-1.91229675,-0.1569063999999988,9.65955025
2026-03-26 15:58:17.876,-1.91229675,-0.1569063999999988,9.65955025
2026-03-26 15:58:18.136,-1.91229675,-0.1470997499999988,9.65955025
2026-03-26 15:58:18.394,-1.91229675,-0.1470997499999988,9.65955025
2026-03-26 15:58:18.633,-1.9221034000000001,-0.1569063999999988,9.65955025
2026-03-26 15:58:18.873,-1.91229675,-0.1470997499999988,9.65955025
2026-03-26 15:58:19.132,-1.9221034000000001,-0.1470997499999988,9.65955025
2026-03-26 15:58:19.393,-1.91229675,-0.1470997499999988,9.65955025
2026-03-26 15:58:19.633,-1.91229675,-0.1569063999999988,9.65955025
2026-03-26 15:58:19.878,-1.91229675,-0.1569063999999988,9.65955025
2026-03-26 15:58:20.133,-1.91229675,-0.1569063999999988,9.65955025
2026-03-26 15:58:20.393,-1.9221034000000001,-0.1569063999999988,9.65955025
2026-03-26 15:58:20.644,-1.9221034000000001,-0.1569063999999988,9.65955025
2026-03-26 15:58:20.875,-1.91229675,-0.1470997499999988,9.65955025
2026-03-26 15:58:21.132,-1.91229675,-0.1569063999999988,9.65955025
2026-03-26 15:58:21.392,-1.9221034000000001,-0.1569063999999988,9.65955025
2026-03-26 15:58:21.633,-1.91229675,-0.1569063999999988,9.65955025
2026-03-26 15:58:21.876,-1.91229675,-0.1569063999999988,9.65955025
2026-03-26 15:58:22.133,-1.91229675,-0.1569063999999988,9.65955025
2026-03-26 15:58:22.393,-1.91229675,-0.1569063999999988,9.65955025
2026-03-26 15:58:22.633,-1.91229675,-0.1470997499999988,9.65955025
2026-03-26 15:58:22.873,-1.91229675,-0.1470997499999988,9.65955025
2026-03-26 15:58:23.132,-1.91229675,-0.1569063999999988,9.65955025
2026-03-26 15:58:23.397,-1.91229675,-0.1470997499999988,9.65955025
2026-03-26 15:58:23.634,-1.9221034000000001,-0.1470997499999988,9.65955025
2026-03-26 15:58:23.875,-1.91229675,-0.1569063999999988,9.65955025
2026-03-26 15:58:24.135,-1.91229675,-0.1470997499999988,9.65955025
2026-03-26 15:58:24.392,-1.9221034000000001,-0.1569063999999988,9.65955025
2026-03-26 15:58:24.637,-1.91229675,-0.1470997499999988,9.65955025
2026-03-26 15:58:24.876,-1.91229675,-0.1569063999999988,9.65955025
2026-03-26 15:58:25.132,-1.9221034000000001,-0.1569063999999988,9.65955025
2026-03-26 15:58:25.392,-1.91229675,-0.1569063999999988,9.65955025
2026-03-26 15:58:25.633,-1.91229675,-0.1569063999999988,9.65955025
2026-03-26 15:58:25.874,-1.9221034000000001,-0.1470997499999988,9.65955025
2026-03-26 15:58:26.134,-1.9221034000000001,-0.1569063999999988,9.65955025
2026-03-26 15:58:26.392,-1.91229675,-0.1470997499999988,9.65955025
2026-03-26 15:58:26.633,-1.9221034000000001,-0.1470997499999988,9.65955025
2026-03-26 15:58:26.873,-1.9221034000000001,-0.1470997499999988,9.65955025
2026-03-26 15:58:27.132,-1.91229675,-0.1569063999999988,9.65955025
2026-03-26 15:58:27.393,-1.9221034000000001,-0.1569063999999988,9.65955025
2026-03-26 15:58:27.633,-1.91229675,-0.1569063999999988,9.65955025
2026-03-26 15:58:27.875,-1.91229675,-0.1470997499999988,9.65955025
2026-03-26 15:58:28.134,-1.91229675,-0.1569063999999988,9.65955025
2026-03-26 15:58:28.393,-1.91229675,-0.1569063999999988,9.65955025
2026-03-26 15:58:28.636,-1.91229675,-0.1470997499999988,9.6693569
2026-03-26 15:58:28.873,-1.9221034000000001,-0.1569063999999988,9.65955025
2026-03-26 15:58:29.138,-1.9221034000000001,-0.1569063999999988,9.65955025
2026-03-26 15:58:29.392,-1.91229675,-0.1569063999999988,9.65955025
2026-03-26 15:58:29.633,-1.9221034000000001,-0.1569063999999988,9.65955025
2026-03-26 15:58:29.872,-1.91229675,-0.1569063999999988,9.65955025
2026-03-26 15:58:30.133,-1.9221034000000001,-0.1470997499999988,9.65955025
2026-03-26 15:58:30.395,-1.91229675,-0.1470997499999988,9.65955025
2026-03-26 15:58:30.633,-1.9221034000000001,-0.1470997499999988,9.65955025
2026-03-26 15:58:30.879,-1.91229675,-0.1569063999999988,9.65955025
2026-03-26 15:58:31.132,-1.91229675,-0.1569063999999988,9.65955025
2026-03-26 15:58:31.393,-1.9221034000000001,-0.1470997499999988,9.65955025
2026-03-26 15:58:31.645,-1.91229675,-0.1569063999999988,9.65955025
2026-03-26 15:58:31.875,-1.91229675,-0.1569063999999988,9.65955025
2026-03-26 15:58:32.132,-1.91229675,-0.1470997499999988,9.65955025
2026-03-26 15:58:32.393,-1.91229675,-0.1470997499999988,9.65955025
2026-03-26 15:58:32.636,-1.91229675,-0.1569063999999988,9.65955025
2026-03-26 15:58:32.880,-1.91229675,-0.1470997499999988,9.65955025
2026-03-26 15:58:33.132,-1.9221034000000001,-0.1470997499999988,9.65955025
2026-03-26 15:58:33.402,-1.91229675,-0.1569063999999988,9.65955025
2026-03-26 15:58:33.637,-1.9221034000000001,-0.1569063999999988,9.65955025
2026-03-26 15:58:33.878,-1.91229675,-0.1569063999999988,9.65955025
2026-03-26 15:58:34.132,-1.91229675,-0.1569063999999988,9.65955025
2026-03-26 15:58:34.392,-1.9221034000000001,-0.1470997499999988,9.65955025
2026-03-26 15:58:34.633,-1.91229675,-0.1569063999999988,9.65955025
2026-03-26 15:58:34.873,-1.91229675,-0.1470997499999988,9.65955025
2026-03-26 15:58:35.132,-1.91229675,-0.1569063999999988,9.65955025
2026-03-26 15:58:35.405,-1.91229675,-0.1569063999999988,9.65955025
2026-03-26 15:58:35.633,-1.91229675,-0.1569063999999988,9.65955025
2026-03-26 15:58:35.874,-1.91229675,-0.1470997499999988,9.65955025
2026-03-26 15:58:36.135,-1.9221034000000001,-0.1470997499999988,9.65955025
2026-03-26 15:58:36.400,-1.91229675,-0.1569063999999988,9.65955025
2026-03-26 15:58:36.632,-1.91229675,-0.1569063999999988,9.65955025
2026-03-26 15:58:36.873,-1.91229675,-0.1470997499999988,9.65955025
2026-03-26 15:58:37.133,-1.91229675,-0.1470997499999988,9.6497436
2026-03-26 15:58:37.393,-1.91229675,-0.1569063999999988,9.65955025
2026-03-26 15:58:37.633,-1.91229675,-0.1470997499999988,9.65955025
2026-03-26 15:58:37.876,-1.9221034000000001,-0.1470997499999988,9.65955025
2026-03-26 15:58:38.133,-1.91229675,-0.1569063999999988,9.65955025
2026-03-26 15:58:38.396,-1.91229675,-0.1470997499999988,9.65955025
2026-03-26 15:58:38.641,-1.9221034000000001,-0.1470997499999988,9.65955025
2026-03-26 15:58:38.877,-1.91229675,-0.1470997499999988,9.65955025
2026-03-26 15:58:39.133,-1.91229675,-0.1470997499999988,9.65955025
2026-03-26 15:58:39.393,-1.91229675,-0.1569063999999988,9.65955025
2026-03-26 15:58:39.632,-1.91229675,-0.1470997499999988,9.65955025
2026-03-26 15:58:39.875,-1.91229675,-0.1470997499999988,9.65955025
2026-03-26 15:58:40.134,-1.91229675,-0.1470997499999988,9.65955025
2026-03-26 15:58:40.395,-1.9221034000000001,-0.1569063999999988,9.65955025
2026-03-26 15:58:40.632,-1.91229675,-0.1569063999999988,9.65955025
2026-03-26 15:58:40.873,-1.91229675,-0.1470997499999988,9.65955025
2026-03-26 15:58:41.133,-1.9221034000000001,-0.1470997499999988,9.65955025
2026-03-26 15:58:41.395,-1.91229675,-0.1569063999999988,9.65955025
2026-03-26 15:58:41.633,-1.91229675,-0.1569063999999988,9.65955025
2026-03-26 15:58:41.875,-1.9221034000000001,-0.1470997499999988,9.65955025
2026-03-26 15:58:42.133,-1.91229675,-0.1470997499999988,9.65955025
2026-03-26 15:58:42.393,-1.9221034000000001,-0.1470997499999988,9.65955025
2026-03-26 15:58:42.634,-1.91229675,-0.1569063999999988,9.65955025
2026-03-26 15:58:42.875,-1.9221034000000001,-0.1569063999999988,9.65955025
2026-03-26 15:58:43.132,-1.91229675,-0.1569063999999988,9.65955025
2026-03-26 15:58:43.393,-1.9221034000000001,-0.1470997499999988,9.65955025
2026-03-26 15:58:43.633,-1.91229675,-0.1470997499999988,9.65955025
2026-03-26 15:58:43.897,-1.91229675,-0.1569063999999988,9.6693569
2026-03-26 15:58:44.135,-1.91229675,-0.1470997499999988,9.65955025
2026-03-26 15:58:44.396,-1.91229675,-0.1569063999999988,9.65955025
2026-03-26 15:58:44.634,-1.9221034000000001,-0.1470997499999988,9.65955025
2026-03-26 15:58:44.874,-1.9221034000000001,-0.1470997499999988,9.65955025
2026-03-26 15:58:45.132,-1.91229675,-0.1470997499999988,9.65955025
2026-03-26 15:58:45.392,-1.91229675,-0.1470997499999988,9.65955025
2026-03-26 15:58:45.633,-1.91229675,-0.1470997499999988,9.65955025
2026-03-26 15:58:45.873,-1.91229675,-0.1470997499999988,9.65955025
2026-03-26 15:58:46.132,-1.91229675,-0.1569063999999988,9.65955025
2026-03-26 15:58:46.392,-1.91229675,-0.1470997499999988,9.65955025
2026-03-26 15:58:46.632,-1.91229675,-0.1470997499999988,9.65955025
2026-03-26 15:58:46.873,-1.91229675,-0.1470997499999988,9.65955025
2026-03-26 15:58:47.134,-1.91229675,-0.1569063999999988,9.65955025
2026-03-26 15:58:47.400,-1.9221034000000001,-0.1569063999999988,9.65955025
2026-03-26 15:58:47.632,-1.91229675,-0.1470997499999988,9.6497436
2026-03-26 15:58:47.885,-1.9221034000000001,-0.1470997499999988,9.65955025
2026-03-26 15:58:48.134,-1.91229675,-0.1569063999999988,9.65955025
2026-03-26 15:58:48.395,-1.9221034000000001,-0.1569063999999988,9.65955025
2026-03-26 15:58:48.632,-1.91229675,-0.1569063999999988,9.65955025
2026-03-26 15:58:48.880,-1.9221034000000001,-0.1569063999999988,9.65955025
2026-03-26 15:58:49.134,-1.91229675,-0.1470997499999988,9.65955025
2026-03-26 15:58:49.395,-1.91229675,-0.1569063999999988,9.65955025
2026-03-26 15:58:49.632,-1.91229675,-0.1470997499999988,9.65955025
2026-03-26 15:58:49.873,-1.91229675,-0.1470997499999988,9.65955025
2026-03-26 15:58:50.137,-1.91229675,-0.1470997499999988,9.65955025
2026-03-26 15:58:50.395,-1.91229675,-0.1470997499999988,9.65955025
2026-03-26 15:58:50.633,-1.91229675,-0.1470997499999988,9.65955025
2026-03-26 15:58:50.892,-1.9221034000000001,-0.1470997499999988,9.65955025
2026-03-26 15:58:51.137,-1.91229675,-0.1569063999999988,9.65955025
2026-03-26 15:58:51.392,-1.91229675,-0.1470997499999988,9.65955025
2026-03-26 15:58:51.636,-1.91229675,-0.1569063999999988,9.65955025
2026-03-26 15:58:51.874,-1.9221034000000001,-0.1569063999999988,9.65955025
2026-03-26 15:58:52.132,-1.91229675,-0.1470997499999988,9.65955025
2026-03-26 15:58:52.392,-1.91229675,-0.1569063999999988,9.65955025
2026-03-26 15:58:52.634,-1.91229675,-0.1569063999999988,9.65955025
2026-03-26 15:58:52.875,-1.91229675,-0.1569063999999988,9.65955025
2026-03-26 15:58:53.143,-1.9221034000000001,-0.1470997499999988,9.65955025
2026-03-26 15:58:53.394,-1.9221034000000001,-0.1470997499999988,9.65955025
2026-03-26 15:58:53.633,-1.91229675,-0.1569063999999988,9.65955025
2026-03-26 15:58:53.873,-1.9221034000000001,-0.1470997499999988,9.65955025
2026-03-26 15:58:54.132,-1.9221034000000001,-0.0588398999999988,9.8262633
2026-03-26 15:58:54.393,-1.9221034000000001,-0.1667130499999988,9.6301303
2026-03-26 15:58:54.632,-1.9221034000000001,-0.1274864499999988,9.65955025
2026-03-26 15:58:54.874,-1.91229675,-0.1470997499999988,9.65955025
2026-03-26 15:58:55.132,-1.9221034000000001,-0.1470997499999988,9.65955025
2026-03-26 15:58:55.394,-1.91229675,-0.1470997499999988,9.65955025
2026-03-26 15:58:55.636,-1.91229675,-0.1569063999999988,9.65955025
2026-03-26 15:58:55.872,-1.9221034000000001,-0.1470997499999988,9.65955025
2026-03-26 15:58:56.132,-1.91229675,-0.1569063999999988,9.65955025
2026-03-26 15:58:56.392,-1.91229675,-0.1569063999999988,9.65955025
2026-03-26 15:58:56.637,-1.9221034000000001,-0.1569063999999988,9.65955025
2026-03-26 15:58:56.874,-1.91229675,-0.1470997499999988,9.65955025
2026-03-26 15:58:57.136,-1.9221034000000001,-0.1470997499999988,9.65955025
2026-03-26 15:58:57.391,-1.91229675,-0.1569063999999988,9.65955025
2026-03-26 15:58:57.633,-1.91229675,-0.1470997499999988,9.65955025
2026-03-26 15:58:57.873,-1.9221034000000001,-0.1470997499999988,9.65955025
2026-03-26 15:58:58.132,-1.9221034000000001,-0.1569063999999988,9.65955025
2026-03-26 15:58:58.398,-1.91229675,-0.1569063999999988,9.65955025
2026-03-26 15:58:58.632,-1.91229675,-0.1569063999999988,9.65955025
2026-03-26 15:58:58.873,-1.91229675,-0.1470997499999988,9.65955025
2026-03-26 15:58:59.132,-1.91229675,-0.1569063999999988,9.65955025
2026-03-26 15:58:59.391,-1.91229675,-0.1470997499999988,9.65955025
2026-03-26 15:58:59.636,-1.91229675,-0.1569063999999988,9.65955025
2026-03-26 15:58:59.873,-1.91229675,-0.1569063999999988,9.65955025
2026-03-26 15:59:00.134,-1.91229675,-0.1569063999999988,9.65955025
2026-03-26 15:59:00.395,-1.91229675,-0.1569063999999988,9.65955025
2026-03-26 15:59:00.637,-1.9221034000000001,-0.1569063999999988,9.65955025
2026-03-26 15:59:00.875,-1.91229675,-0.1470997499999988,9.65955025
2026-03-26 15:59:01.135,-1.91229675,-0.1470997499999988,9.65955025
2026-03-26 15:59:01.391,-1.91229675,-0.1470997499999988,9.65955025
2026-03-26 15:59:01.632,-1.91229675,-0.1569063999999988,9.65955025
2026-03-26 15:59:01.875,-1.9221034000000001,-0.1470997499999988,9.65955025
2026-03-26 15:59:02.144,-1.91229675,-0.1470997499999988,9.65955025
2026-03-26 15:59:02.392,-1.91229675,-0.1470997499999988,9.65955025
2026-03-26 15:59:02.632,-1.9221034000000001,-0.1470997499999988,9.65955025
2026-03-26 15:59:02.882,-1.9221034000000001,-0.1569063999999988,9.65955025
2026-03-26 15:59:03.132,-1.91229675,-0.1470997499999988,9.65955025
2026-03-26 15:59:03.392,-1.91229675,-0.1470997499999988,9.65955025
2026-03-26 15:59:03.634,-1.91229675,-0.1470997499999988,9.65955025
2026-03-26 15:59:03.873,-1.91229675,-0.1470997499999988,9.65955025
2026-03-26 15:59:04.133,-1.91229675,-0.1569063999999988,9.65955025
2026-03-26 15:59:04.399,-1.91229675,-0.1569063999999988,9.65955025
2026-03-26 15:59:04.637,-1.9221034000000001,-0.1470997499999988,9.65955025
2026-03-26 15:59:04.876,-1.91229675,-0.1569063999999988,9.65955025
2026-03-26 15:59:05.133,-1.91229675,-0.1569063999999988,9.65955025
2026-03-26 15:59:05.398,-1.9221034000000001,-0.1470997499999988,9.65955025
2026-03-26 15:59:05.632,-1.91229675,-0.1569063999999988,9.65955025
2026-03-26 15:59:05.875,-1.91229675,-0.1569063999999988,9.65955025
2026-03-26 15:59:06.132,-1.91229675,-0.1470997499999988,9.65955025
2026-03-26 15:59:06.393,-1.91229675,-0.1470997499999988,9.65955025
2026-03-26 15:59:06.633,-1.9221034000000001,-0.1569063999999988,9.65955025
2026-03-26 15:59:06.879,-1.9221034000000001,-0.1470997499999988,9.65955025
2026-03-26 15:59:07.132,-1.9221034000000001,-0.1470997499999988,9.65955025
2026-03-26 15:59:07.401,-1.91229675,-0.1470997499999988,9.65955025
2026-03-26 15:59:07.632,-1.91229675,-0.1470997499999988,9.65955025
2026-03-26 15:59:07.877,-1.91229675,-0.1569063999999988,9.65955025
2026-03-26 15:59:08.132,-1.91229675,-0.1569063999999988,9.65955025
2026-03-26 15:59:08.393,-1.91229675,-0.1470997499999988,9.65955025
2026-03-26 15:59:08.639,-1.9221034000000001,-0.1470997499999988,9.65955025
2026-03-26 15:59:08.878,-1.91229675,-0.1470997499999988,9.65955025
2026-03-26 15:59:09.148,-1.91229675,-0.1470997499999988,9.65955025
2026-03-26 15:59:09.393,-1.91229675,-0.1470997499999988,9.65955025
2026-03-26 15:59:09.632,-1.91229675,-0.1470997499999988,9.65955025
2026-03-26 15:59:09.872,-1.91229675,-0.1470997499999988,9.65955025
2026-03-26 15:59:10.132,-1.91229675,-0.1470997499999988,9.6693569
2026-03-26 15:59:10.396,-1.91229675,-0.1470997499999988,9.65955025
2026-03-26 15:59:10.634,-1.9221034000000001,-0.1569063999999988,9.65955025
2026-03-26 15:59:10.879,-1.91229675,-0.1470997499999988,9.65955025
2026-03-26 15:59:11.133,-1.91229675,-0.1569063999999988,9.65955025
2026-03-26 15:59:11.401,-1.91229675,-0.1470997499999988,9.65955025
2026-03-26 15:59:11.632,-1.91229675,-0.1470997499999988,9.65955025
2026-03-26 15:59:11.880,-1.91229675,-0.1470997499999988,9.65955025
2026-03-26 15:59:12.131,-1.91229675,-0.1569063999999988,9.65955025
2026-03-26 15:59:12.391,-1.91229675,-0.1470997499999988,9.65955025
2026-03-26 15:59:12.634,-1.9221034000000001,-0.1470997499999988,9.65955025
2026-03-26 15:59:12.873,-1.91229675,-0.1569063999999988,9.65955025
2026-03-26 15:59:13.133,-1.91229675,-0.1569063999999988,9.65955025
2026-03-26 15:59:13.391,-1.91229675,-0.1470997499999988,9.65955025
2026-03-26 15:59:13.632,-1.91229675,-0.1470997499999988,9.65955025
2026-03-26 15:59:13.874,-1.91229675,-0.1569063999999988,9.65955025
2026-03-26 15:59:14.132,-1.9221034000000001,-0.1470997499999988,9.65955025
2026-03-26 15:59:14.391,-1.91229675,-0.1470997499999988,9.65955025
2026-03-26 15:59:14.632,-1.91229675,-0.1569063999999988,9.65955025
2026-03-26 15:59:14.873,-1.91229675,-0.1569063999999988,9.65955025
2026-03-26 15:59:15.132,-1.91229675,-0.1569063999999988,9.65955025
2026-03-26 15:59:15.395,-1.9221034000000001,-0.1470997499999988,9.65955025
2026-03-26 15:59:15.637,-1.9221034000000001,-0.1470997499999988,9.65955025
2026-03-26 15:59:15.878,-1.91229675,-0.1470997499999988,9.65955025
2026-03-26 15:59:16.132,-1.91229675,-0.1470997499999988,9.65955025
2026-03-26 15:59:16.399,-1.91229675,-0.1470997499999988,9.65955025
2026-03-26 15:59:16.632,-1.91229675,-0.1470997499999988,9.65955025
2026-03-26 15:59:16.873,-1.91229675,-0.1569063999999988,9.65955025
2026-03-26 15:59:17.132,-1.91229675,-0.1470997499999988,9.65955025
2026-03-26 15:59:17.391,-1.91229675,-0.1470997499999988,9.65955025
2026-03-26 15:59:17.635,-1.91229675,-0.1470997499999988,9.65955025
2026-03-26 15:59:17.878,-1.9221034000000001,-0.1470997499999988,9.65955025
2026-03-26 15:59:18.134,-1.91229675,-0.1569063999999988,9.65955025
2026-03-26 15:59:18.391,-1.9221034000000001,-0.1470997499999988,9.65955025
2026-03-26 15:59:18.647,-1.91229675,-0.1470997499999988,9.65955025
2026-03-26 15:59:18.872,-1.91229675,-0.1470997499999988,9.65955025
2026-03-26 15:59:19.133,-1.9221034000000001,-0.1470997499999988,9.65955025
2026-03-26 15:59:19.398,-1.91229675,-0.1470997499999988,9.65955025
2026-03-26 15:59:19.632,-1.9221034000000001,-0.1470997499999988,9.65955025
2026-03-26 15:59:19.874,-1.9221034000000001,-0.1470997499999988,9.65955025
2026-03-26 15:59:20.132,-1.91229675,-0.1569063999999988,9.65955025
2026-03-26 15:59:20.392,-1.9221034000000001,-0.1470997499999988,9.65955025
2026-03-26 15:59:20.634,-1.91229675,-0.1569063999999988,9.65955025
2026-03-26 15:59:20.877,-1.9221034000000001,-0.1569063999999988,9.6693569
2026-03-26 15:59:21.133,-1.9221034000000001,-0.1569063999999988,9.65955025
2026-03-26 15:59:21.397,-1.9221034000000001,-0.1470997499999988,9.65955025
2026-03-26 15:59:21.632,-1.91229675,-0.1470997499999988,9.65955025
2026-03-26 15:59:21.874,-1.91229675,-0.1470997499999988,9.65955025
2026-03-26 15:59:22.137,-1.9221034000000001,-0.1569063999999988,9.65955025
2026-03-26 15:59:22.394,-1.91229675,-0.1569063999999988,9.65955025
2026-03-26 15:59:22.634,-1.91229675,-0.1470997499999988,9.65955025
2026-03-26 15:59:22.880,-1.9221034000000001,-0.1470997499999988,9.65955025
2026-03-26 15:59:23.132,-1.91229675,-0.1470997499999988,9.65955025
2026-03-26 15:59:23.392,-1.91229675,-0.1470997499999988,9.6693569
2026-03-26 15:59:23.632,-1.9221034000000001,-0.1569063999999988,9.65955025
2026-03-26 15:59:23.881,-1.91229675,-0.1569063999999988,9.65955025
2026-03-26 15:59:24.133,-1.91229675,-0.1470997499999988,9.65955025
2026-03-26 15:59:24.392,-1.91229675,-0.1569063999999988,9.65955025
2026-03-26 15:59:24.634,-1.91229675,-0.1569063999999988,9.65955025
2026-03-26 15:59:24.872,-1.91229675,-0.1470997499999988,9.65955025
2026-03-26 15:59:25.135,-1.9221034000000001,-0.1470997499999988,9.65955025
2026-03-26 15:59:25.397,-1.91229675,-0.1470997499999988,9.65955025
2026-03-26 15:59:25.632,-1.91229675,-0.1470997499999988,9.65955025
2026-03-26 15:59:25.873,-1.91229675,-0.1569063999999988,9.65955025
2026-03-26 15:59:26.136,-1.91229675,-0.1569063999999988,9.65955025
2026-03-26 15:59:26.396,-1.9221034000000001,-0.1569063999999988,9.65955025
2026-03-26 15:59:26.633,-1.9221034000000001,-0.1470997499999988,9.65955025
2026-03-26 15:59:26.875,-1.91229675,-0.1569063999999988,9.65955025
2026-03-26 15:59:27.132,-1.9221034000000001,-0.1470997499999988,9.65955025
2026-03-26 15:59:27.398,-1.91229675,-0.1569063999999988,9.65955025
2026-03-26 15:59:27.632,-1.91229675,-0.1470997499999988,9.65955025
2026-03-26 15:59:27.874,-1.91229675,-0.1470997499999988,9.65955025
2026-03-26 15:59:28.133,-1.91229675,-0.1569063999999988,9.65955025
2026-03-26 15:59:28.392,-1.91229675,-0.1569063999999988,9.65955025
2026-03-26 15:59:28.632,-1.91229675,-0.1569063999999988,9.65955025
2026-03-26 15:59:28.876,-1.91229675,-0.1569063999999988,9.65955025
2026-03-26 15:59:29.132,-1.91229675,-0.1569063999999988,9.65955025
2026-03-26 15:59:29.392,-1.91229675,-0.1569063999999988,9.65955025
2026-03-26 15:59:29.631,-1.91229675,-0.1470997499999988,9.65955025
2026-03-26 15:59:29.874,-1.91229675,-0.1470997499999988,9.65955025
2026-03-26 15:59:30.132,-1.91229675,-0.1569063999999988,9.65955025
2026-03-26 15:59:30.392,-1.9221034000000001,-0.1569063999999988,9.65955025
2026-03-26 15:59:30.637,-1.91229675,-0.1569063999999988,9.65955025
2026-03-26 15:59:30.873,-1.91229675,-0.1569063999999988,9.65955025
2026-03-26 15:59:31.132,-1.91229675,-0.1569063999999988,9.65955025
2026-03-26 15:59:31.393,-1.91229675,-0.1569063999999988,9.65955025
2026-03-26 15:59:31.633,-1.91229675,-0.1569063999999988,9.65955025
2026-03-26 15:59:31.872,-1.91229675,-0.1470997499999988,9.65955025
2026-03-26 15:59:32.135,-1.91229675,-0.1470997499999988,9.65955025
2026-03-26 15:59:32.392,-1.91229675,-0.1569063999999988,9.65955025
2026-03-26 15:59:32.639,-1.91229675,-0.1569063999999988,9.65955025
2026-03-26 15:59:32.872,-1.91229675,-0.1569063999999988,9.65955025
2026-03-26 15:59:33.133,-1.91229675,-0.1470997499999988,9.65955025
2026-03-26 15:59:33.400,-1.9221034000000001,-0.1569063999999988,9.65955025
2026-03-26 15:59:33.632,-1.91229675,-0.1470997499999988,9.65955025
2026-03-26 15:59:33.878,-1.9221034000000001,-0.1569063999999988,9.65955025
2026-03-26 15:59:34.132,-1.91229675,-0.1569063999999988,9.65955025
2026-03-26 15:59:34.401,-1.91229675,-0.1569063999999988,9.65955025
2026-03-26 15:59:34.632,-1.91229675,-0.1569063999999988,9.65955025
2026-03-26 15:59:34.877,-1.9221034000000001,-0.1470997499999988,9.65955025
2026-03-26 15:59:35.132,-1.9221034000000001,-0.1470997499999988,9.65955025
2026-03-26 15:59:35.397,-1.9221034000000001,-0.1569063999999988,9.65955025
2026-03-26 15:59:35.635,-1.91229675,-0.1470997499999988,9.65955025
2026-03-26 15:59:35.874,-1.9221034000000001,-0.1470997499999988,9.65955025
2026-03-26 15:59:36.132,-1.91229675,-0.1569063999999988,9.65955025
2026-03-26 15:59:36.394,-1.91229675,-0.1569063999999988,9.65955025
2026-03-26 15:59:36.637,-1.9221034000000001,-0.1470997499999988,9.65955025
2026-03-26 15:59:36.872,-1.91229675,-0.1470997499999988,9.6693569
2026-03-26 15:59:37.132,-1.91229675,-0.1569063999999988,9.65955025
2026-03-26 15:59:37.402,-1.9024901,-0.1569063999999988,9.6497436
2026-03-26 15:59:37.632,-1.91229675,-0.1470997499999988,9.65955025
2026-03-26 15:59:37.872,-1.9221034000000001,-0.1470997499999988,9.65955025
2026-03-26 15:59:38.132,-1.91229675,-0.1569063999999988,9.65955025
2026-03-26 15:59:38.393,-1.9221034000000001,-0.1569063999999988,9.65955025
2026-03-26 15:59:38.632,-1.91229675,-0.1470997499999988,9.65955025
2026-03-26 15:59:38.874,-1.91229675,-0.1470997499999988,9.65955025
2026-03-26 15:59:39.132,-1.91229675,-0.1470997499999988,9.65955025
2026-03-26 15:59:39.395,-1.91229675,-0.1470997499999988,9.65955025
2026-03-26 15:59:39.632,-1.91229675,-0.1470997499999988,9.65955025
2026-03-26 15:59:39.872,-1.91229675,-0.1569063999999988,9.65955025
2026-03-26 15:59:40.132,-1.91229675,-0.1470997499999988,9.65955025
2026-03-26 15:59:40.391,-1.91229675,-0.1569063999999988,9.65955025
2026-03-26 15:59:40.648,-1.91229675,-0.1470997499999988,9.65955025
2026-03-26 15:59:40.872,-1.91229675,-0.1569063999999988,9.65955025
2026-03-26 15:59:41.132,-1.91229675,-0.1470997499999988,9.65955025
2026-03-26 15:59:41.393,-1.9221034000000001,-0.1470997499999988,9.65955025
2026-03-26 15:59:41.632,-1.91229675,-0.1470997499999988,9.65955025
2026-03-26 15:59:41.873,-1.9221034000000001,-0.1470997499999988,9.65955025
2026-03-26 15:59:42.132,-1.91229675,-0.1569063999999988,9.65955025
2026-03-26 15:59:42.392,-1.91229675,-0.1470997499999988,9.6693569
2026-03-26 15:59:42.634,-1.91229675,-0.1569063999999988,9.65955025
2026-03-26 15:59:42.873,-1.91229675,-0.1569063999999988,9.65955025
2026-03-26 15:59:43.140,-1.9221034000000001,-0.1569063999999988,9.65955025
2026-03-26 15:59:43.391,-1.91229675,-0.1569063999999988,9.65955025
2026-03-26 15:59:43.632,-1.9221034000000001,-0.1569063999999988,9.65955025
2026-03-26 15:59:43.877,-1.91229675,-0.1569063999999988,9.65955025
2026-03-26 15:59:44.131,-1.9221034000000001,-0.1569063999999988,9.65955025
2026-03-26 15:59:44.392,-1.91229675,-0.1569063999999988,9.65955025
2026-03-26 15:59:44.632,-1.9221034000000001,-0.1569063999999988,9.65955025
2026-03-26 15:59:44.872,-1.91229675,-0.1470997499999988,9.65955025
2026-03-26 15:59:45.134,-1.91229675,-0.1470997499999988,9.65955025
2026-03-26 15:59:45.391,-1.91229675,-0.1470997499999988,9.65955025
2026-03-26 15:59:45.633,-1.9221034000000001,-0.1470997499999988,9.65955025
2026-03-26 15:59:45.872,-1.9024901,-0.1470997499999988,9.65955025
2026-03-26 15:59:46.131,-1.9221034000000001,-0.1470997499999988,9.6497436
2026-03-26 15:59:46.391,-1.91229675,-0.1569063999999988,9.65955025
2026-03-26 15:59:46.632,-1.9221034000000001,-0.1372930999999988,9.65955025
2026-03-26 15:59:46.876,-1.9221034000000001,-0.1470997499999988,9.65955025
2026-03-26 15:59:47.138,-1.91229675,-0.1372930999999988,9.65955025
2026-03-26 15:59:47.390,-1.91229675,-0.1372930999999988,9.65955025
2026-03-26 15:59:47.632,-1.9221034000000001,-0.1470997499999988,9.65955025
2026-03-26 15:59:47.878,-1.9221034000000001,-0.1470997499999988,9.65955025
2026-03-26 15:59:48.138,-1.9221034000000001,-0.1470997499999988,9.65955025
2026-03-26 15:59:48.418,-1.91229675,-0.1569063999999988,9.65955025
2026-03-26 15:59:48.632,-1.91229675,-0.1569063999999988,9.65955025
2026-03-26 15:59:48.898,-1.91229675,-0.1569063999999988,9.65955025
2026-03-26 15:59:49.138,-1.91229675,-0.1470997499999988,9.65955025
2026-03-26 15:59:49.500,-1.91229675,-0.1569063999999988,9.65955025
2026-03-26 15:59:49.635,-1.91229675,-0.1470997499999988,9.65955025
2026-03-26 15:59:49.874,-1.91229675,-0.1569063999999988,9.65955025
2026-03-26 15:59:50.139,-1.91229675,-0.1569063999999988,9.65955025
