[System]
Platform=SEANO USV
Start_Time=2026-04-07 14:58:44
Timezone=WIB

[Sensor]
Name=IMU

[Columns]
Timestamp(WIB)	AccX	AccY	AccZ

[Data]
2026-04-07 14:58:47.437	-0.196133	-0.0490332499999988	9.83606995
2026-04-07 14:58:47.697	-0.196133	-0.0490332499999988	9.83606995
2026-04-07 14:58:47.939	-0.1569064	-0.0784531999999988	9.8458766
2026-04-07 14:58:48.197	-0.1569064	-0.0784531999999988	9.8458766
2026-04-07 14:58:48.437	-0.20593965	-0.0882598499999988	9.8458766
2026-04-07 14:58:48.696	-0.20593965	-0.0882598499999988	9.8458766
2026-04-07 14:58:48.937	-0.16671305	-0.0392265999999988	9.80665
2026-04-07 14:58:49.196	-0.16671305	-0.0392265999999988	9.80665
2026-04-07 14:58:49.437	-0.18632635	-0.0784531999999988	9.83606995
2026-04-07 14:58:49.697	-0.18632635	-0.0784531999999988	9.83606995
2026-04-07 14:58:49.937	-0.1765197	-0.0784531999999988	9.8262633
2026-04-07 14:58:50.197	-0.1765197	-0.0784531999999988	9.8262633
2026-04-07 14:58:50.437	-0.196133	-0.0588398999999988	9.8262633
2026-04-07 14:58:50.696	-0.196133	-0.0588398999999988	9.8262633
2026-04-07 14:58:50.937	-0.16671305	-0.0686465499999988	9.83606995
2026-04-07 14:58:51.198	-0.16671305	-0.0686465499999988	9.83606995
2026-04-07 14:58:51.438	-0.18632635	-0.0588398999999988	9.8458766
2026-04-07 14:58:51.696	-0.18632635	-0.0588398999999988	9.8458766
2026-04-07 14:58:51.937	-0.18632635	-0.0882598499999988	9.8262633
2026-04-07 14:58:52.197	-0.18632635	-0.0882598499999988	9.8262633
2026-04-07 14:58:52.437	-0.18632635	-0.0588398999999988	9.8262633
2026-04-07 14:58:52.696	-0.18632635	-0.0588398999999988	9.8262633
2026-04-07 14:58:52.937	-0.1765197	-0.0588398999999988	9.8458766
2026-04-07 14:58:53.198	-0.1765197	-0.0588398999999988	9.8458766
2026-04-07 14:58:53.437	-0.20593965	-0.0980664999999988	9.8458766
2026-04-07 14:58:53.696	-0.20593965	-0.0980664999999988	9.8458766
2026-04-07 14:58:53.937	-0.18632635	-0.0392265999999988	9.8262633
2026-04-07 14:58:54.196	-0.18632635	-0.0392265999999988	9.8262633
2026-04-07 14:58:54.437	-0.1765197	-0.0588398999999988	9.8262633
2026-04-07 14:58:54.696	-0.1765197	-0.0588398999999988	9.8262633
2026-04-07 14:58:54.938	-0.1765197	-0.0784531999999988	9.8458766
2026-04-07 14:58:55.196	-0.1765197	-0.0784531999999988	9.8458766
2026-04-07 14:58:55.438	-0.196133	-0.0588398999999988	9.83606995
2026-04-07 14:58:55.697	-0.196133	-0.0588398999999988	9.83606995
2026-04-07 14:58:55.937	-0.18632635	-0.0686465499999988	9.8262633
2026-04-07 14:58:56.197	-0.18632635	-0.0686465499999988	9.8262633
2026-04-07 14:58:56.437	-0.16671305	-0.0392265999999988	9.8262633
2026-04-07 14:58:56.696	-0.16671305	-0.0392265999999988	9.8262633
2026-04-07 14:58:56.938	-0.18632635	-0.0784531999999988	9.8262633
2026-04-07 14:58:57.197	-0.18632635	-0.0784531999999988	9.8262633
2026-04-07 14:58:57.436	-0.1765197	-0.1078731499999988	9.8262633
2026-04-07 14:58:57.696	-0.1765197	-0.1078731499999988	9.8262633
2026-04-07 14:58:57.937	-0.196133	-0.0588398999999988	9.8458766
2026-04-07 14:58:58.196	-0.196133	-0.0588398999999988	9.8458766
2026-04-07 14:58:58.436	-0.18632635	-0.0686465499999988	9.83606995
2026-04-07 14:58:58.696	-0.18632635	-0.0686465499999988	9.83606995
2026-04-07 14:58:58.937	-0.1765197	-0.0490332499999988	9.8262633
2026-04-07 14:58:59.197	-0.1765197	-0.0490332499999988	9.8262633
2026-04-07 14:58:59.437	-0.18632635	-0.0882598499999988	9.8262633
2026-04-07 14:58:59.696	-0.18632635	-0.0882598499999988	9.8262633
2026-04-07 14:58:59.938	-0.196133	-0.0686465499999988	9.83606995
2026-04-07 14:59:00.196	-0.196133	-0.0686465499999988	9.83606995
2026-04-07 14:59:00.438	-0.1765197	-0.03922659999999879	9.8458766
2026-04-07 14:59:00.698	-0.1765197	-0.03922659999999879	9.8458766
2026-04-07 14:59:00.938	-0.18632635	-0.0882598499999988	9.81645665
2026-04-07 14:59:01.198	-0.18632635	-0.0882598499999988	9.81645665
2026-04-07 14:59:01.437	-0.1765197	-0.0392265999999988	9.79684335
2026-04-07 14:59:01.698	-0.1765197	-0.0392265999999988	9.79684335
2026-04-07 14:59:01.939	-0.1765197	-0.0588398999999988	9.8458766
2026-04-07 14:59:02.197	-0.1765197	-0.0588398999999988	9.8458766
2026-04-07 14:59:02.437	-0.18632635	-0.0980664999999988	9.85568325
2026-04-07 14:59:02.696	-0.18632635	-0.0980664999999988	9.85568325
2026-04-07 14:59:02.939	-0.196133	-0.0588398999999988	9.8458766
2026-04-07 14:59:03.199	-0.196133	-0.0588398999999988	9.8458766
2026-04-07 14:59:03.440	-0.1765197	-0.0490332499999988	9.81645665
2026-04-07 14:59:03.696	-0.1765197	-0.0490332499999988	9.81645665
2026-04-07 14:59:03.938	-0.1765197	-0.0686465499999988	9.81645665
2026-04-07 14:59:04.198	-0.1765197	-0.0686465499999988	9.81645665
2026-04-07 14:59:04.437	-0.1765197	-0.0784531999999988	9.81645665
2026-04-07 14:59:04.699	-0.1765197	-0.0784531999999988	9.81645665
2026-04-07 14:59:04.938	-0.20593965	-0.0784531999999988	9.8458766
2026-04-07 14:59:05.197	-0.20593965	-0.0784531999999988	9.8458766
2026-04-07 14:59:05.438	-0.16671305	-0.0392265999999988	9.8262633
2026-04-07 14:59:05.696	-0.16671305	-0.0392265999999988	9.8262633
2026-04-07 14:59:05.941	-0.196133	-0.0588398999999988	9.83606995
2026-04-07 14:59:06.199	-0.196133	-0.0588398999999988	9.83606995
2026-04-07 14:59:06.437	-0.16671305	-0.0784531999999988	9.81645665
2026-04-07 14:59:06.698	-0.16671305	-0.0784531999999988	9.81645665
2026-04-07 14:59:06.937	-0.18632635	-0.0588398999999988	9.8458766
2026-04-07 14:59:07.196	-0.18632635	-0.0588398999999988	9.8458766
2026-04-07 14:59:07.441	-0.196133	-0.0686465499999988	9.8262633
2026-04-07 14:59:07.696	-0.196133	-0.0686465499999988	9.8262633
2026-04-07 14:59:07.937	-0.1765197	-0.03922659999999879	9.83606995
2026-04-07 14:59:08.197	-0.1765197	-0.03922659999999879	9.83606995
2026-04-07 14:59:08.438	-0.16671305	-0.0882598499999988	9.83606995
2026-04-07 14:59:08.696	-0.16671305	-0.0882598499999988	9.83606995
2026-04-07 14:59:08.939	-0.18632635	-0.0882598499999988	9.8458766
2026-04-07 14:59:09.196	-0.18632635	-0.0882598499999988	9.8458766
2026-04-07 14:59:09.442	-0.18632635	-0.0490332499999988	9.81645665
2026-04-07 14:59:09.697	-0.18632635	-0.0490332499999988	9.81645665
2026-04-07 14:59:09.942	-0.1765197	-0.0588398999999988	9.80665
2026-04-07 14:59:10.196	-0.1765197	-0.0588398999999988	9.80665
2026-04-07 14:59:10.440	-0.1765197	-0.0882598499999988	9.83606995
2026-04-07 14:59:10.697	-0.1765197	-0.0882598499999988	9.83606995
2026-04-07 14:59:10.942	-0.196133	-0.0784531999999988	9.8654899
2026-04-07 14:59:11.202	-0.196133	-0.0784531999999988	9.8654899
2026-04-07 14:59:11.440	-0.18632635	-0.0392265999999988	9.8262633
2026-04-07 14:59:11.699	-0.18632635	-0.0392265999999988	9.8262633
2026-04-07 14:59:11.937	-0.1765197	-0.0686465499999988	9.80665
2026-04-07 14:59:12.199	-0.1765197	-0.0686465499999988	9.80665
2026-04-07 14:59:12.440	-0.1765197	-0.0588398999999988	9.8262633
2026-04-07 14:59:12.695	-0.1765197	-0.0588398999999988	9.8262633
2026-04-07 14:59:12.941	-0.196133	-0.0784531999999988	9.83606995
2026-04-07 14:59:13.200	-0.196133	-0.0784531999999988	9.83606995
2026-04-07 14:59:13.439	-0.18632635	-0.0588398999999988	9.83606995
2026-04-07 14:59:13.704	-0.18632635	-0.0588398999999988	9.83606995
2026-04-07 14:59:13.941	-0.1765197	-0.0588398999999988	9.8262633
2026-04-07 14:59:14.204	-0.1765197	-0.0588398999999988	9.8262633
2026-04-07 14:59:14.440	-0.1765197	-0.0686465499999988	9.8458766
2026-04-07 14:59:14.697	-0.1765197	-0.0686465499999988	9.8458766
2026-04-07 14:59:14.938	-0.1176798	-0.0686465499999988	9.8654899
2026-04-07 14:59:15.196	-0.1176798	-0.0686465499999988	9.8654899
2026-04-07 14:59:15.442	0.40207265000000003	-0.08825984999999882	9.7085835
2026-04-07 14:59:15.697	0.40207265000000003	-0.08825984999999882	9.7085835
2026-04-07 14:59:15.939	0.02941995	-0.029419949999998793	9.8458766
2026-04-07 14:59:16.198	0.02941995	-0.029419949999998793	9.8458766
2026-04-07 14:59:16.437	0.0784532	-0.0882598499999988	9.80665
2026-04-07 14:59:16.697	0.0784532	-0.0882598499999988	9.80665
2026-04-07 14:59:16.940	-0.0196133	-0.04903324999999879	9.85568325
2026-04-07 14:59:17.198	-0.0196133	-0.04903324999999879	9.85568325
2026-04-07 14:59:17.438	-0.18632635	0.019613300000001194	9.7478101
2026-04-07 14:59:17.695	-0.18632635	0.019613300000001194	9.7478101
2026-04-07 14:59:17.941	-0.5099458	0.0196133000000012	9.81645665
2026-04-07 14:59:18.197	-0.5099458	0.0196133000000012	9.81645665
2026-04-07 14:59:18.440	-0.34323275	-0.1078731499999988	9.83606995
2026-04-07 14:59:18.697	-0.34323275	-0.1078731499999988	9.83606995
2026-04-07 14:59:18.938	-0.3726527	-0.3040061499999988	9.8654899
2026-04-07 14:59:19.197	-0.3726527	-0.3040061499999988	9.8654899
2026-04-07 14:59:19.436	-0.26477955	-0.009806649999998794	9.8458766
2026-04-07 14:59:19.697	-0.26477955	-0.009806649999998794	9.8458766
2026-04-07 14:59:19.942	-0.20593965	-0.0980664999999988	9.83606995
2026-04-07 14:59:20.196	-0.20593965	-0.0980664999999988	9.83606995
2026-04-07 14:59:20.442	-0.20593965	-0.019613299999998796	9.8262633
2026-04-07 14:59:20.697	-0.20593965	-0.019613299999998796	9.8262633
2026-04-07 14:59:20.938	-0.2157463	-0.1176797999999988	9.81645665
2026-04-07 14:59:21.197	-0.2157463	-0.1176797999999988	9.81645665
2026-04-07 14:59:21.440	-0.2157463	-0.0490332499999988	9.81645665
2026-04-07 14:59:21.697	-0.2157463	-0.0490332499999988	9.81645665
2026-04-07 14:59:21.942	-0.196133	-0.0784531999999988	9.83606995
2026-04-07 14:59:22.197	-0.196133	-0.0784531999999988	9.83606995
2026-04-07 14:59:22.441	-0.20593965	-0.0980664999999988	9.85568325
2026-04-07 14:59:22.696	-0.20593965	-0.0980664999999988	9.85568325
2026-04-07 14:59:22.941	-0.196133	-0.0686465499999988	9.8262633
2026-04-07 14:59:23.197	-0.196133	-0.0686465499999988	9.8262633
2026-04-07 14:59:23.440	-0.26477955	0.15690640000000122	9.81645665
2026-04-07 14:59:23.697	-0.26477955	0.15690640000000122	9.81645665
2026-04-07 14:59:23.937	-0.16671305	-0.2451662499999988	9.79684335
2026-04-07 14:59:24.197	-0.16671305	-0.2451662499999988	9.79684335
2026-04-07 14:59:24.441	-0.18632635	-0.0588398999999988	9.8262633
2026-04-07 14:59:24.697	-0.18632635	-0.0588398999999988	9.8262633
2026-04-07 14:59:24.940	-0.2157463	-0.20593964999999878	9.9439431
2026-04-07 14:59:25.197	-0.2157463	-0.20593964999999878	9.9439431
2026-04-07 14:59:25.440	-0.20593965	-0.2549728999999988	9.89490985
2026-04-07 14:59:25.698	-0.20593965	-0.2549728999999988	9.89490985
2026-04-07 14:59:25.936	-0.12748645	0.08825985000000118	9.73800345
2026-04-07 14:59:26.197	-0.12748645	0.08825985000000118	9.73800345
2026-04-07 14:59:26.438	-0.2549729	-0.029419949999998803	9.79684335
2026-04-07 14:59:26.697	-0.2549729	-0.029419949999998803	9.79684335
2026-04-07 14:59:26.937	-0.1569064	-0.029419949999998793	9.8654899
2026-04-07 14:59:27.198	-0.1569064	-0.029419949999998793	9.8654899
2026-04-07 14:59:27.439	-0.26477955	0.029419950000001215	9.93413645
2026-04-07 14:59:27.697	-0.26477955	0.029419950000001215	9.93413645
2026-04-07 14:59:27.937	-0.1176798	-0.0686465499999988	9.83606995
2026-04-07 14:59:28.197	-0.1176798	-0.0686465499999988	9.83606995
2026-04-07 14:59:28.441	-0.18632635	-0.0098066499999988	9.79684335
2026-04-07 14:59:28.696	-0.18632635	-0.0098066499999988	9.79684335
2026-04-07 14:59:28.938	0.08825985	-0.058839899999998814	9.6693569
2026-04-07 14:59:29.196	0.08825985	-0.058839899999998814	9.6693569
2026-04-07 14:59:29.439	0.1765197	-0.0686465499999988	9.80665
2026-04-07 14:59:29.696	0.1765197	-0.0686465499999988	9.80665
2026-04-07 14:59:29.940	0.1569064	-0.04903324999999879	9.8851032
2026-04-07 14:59:30.198	0.1569064	-0.04903324999999879	9.8851032
2026-04-07 14:59:30.437	-0.28439285000000003	-0.0882598499999988	9.8262633
2026-04-07 14:59:30.700	-0.28439285000000003	-0.0882598499999988	9.8262633
2026-04-07 14:59:30.936	-0.44129925000000003	-0.0980664999999988	9.8262633
2026-04-07 14:59:31.196	-0.44129925000000003	-0.0980664999999988	9.8262633
2026-04-07 14:59:31.441	-0.40207265000000003	-0.0392265999999988	9.7870367
2026-04-07 14:59:31.700	-0.40207265000000003	-0.0392265999999988	9.7870367
2026-04-07 14:59:31.937	-0.71588545	-0.0686465499999988	9.89490985
2026-04-07 14:59:32.196	-0.71588545	-0.0686465499999988	9.89490985
2026-04-07 14:59:32.437	-0.1372931	-0.03922659999999879	9.8458766
2026-04-07 14:59:32.695	-0.1372931	-0.03922659999999879	9.8458766
2026-04-07 14:59:32.940	-0.12748645	-0.0980664999999988	9.8262633
2026-04-07 14:59:33.196	-0.12748645	-0.0980664999999988	9.8262633
2026-04-07 14:59:33.441	0.0588399	-0.07845319999999882	9.67916355
2026-04-07 14:59:33.700	0.0588399	-0.07845319999999882	9.67916355
2026-04-07 14:59:33.940	-0.3726527	-0.009806649999998793	9.85568325
2026-04-07 14:59:34.196	-0.3726527	-0.009806649999998793	9.85568325
2026-04-07 14:59:34.441	-0.04903325	-0.0980664999999988	9.8262633
2026-04-07 14:59:34.697	-0.04903325	-0.0980664999999988	9.8262633
2026-04-07 14:59:34.937	-0.3334261	-0.04903324999999878	9.9831697
2026-04-07 14:59:35.195	-0.3334261	-0.04903324999999878	9.9831697
2026-04-07 14:59:35.436	-0.0784532	-0.0882598499999988	9.7478101
2026-04-07 14:59:35.696	-0.0784532	-0.0882598499999988	9.7478101
2026-04-07 14:59:35.937	-0.26477955	-0.0392265999999988	9.81645665
2026-04-07 14:59:36.196	-0.26477955	-0.0392265999999988	9.81645665
2026-04-07 14:59:36.436	-0.0980665	-0.0490332499999988	9.80665
2026-04-07 14:59:36.695	-0.0980665	-0.0490332499999988	9.80665
2026-04-07 14:59:36.936	-0.588399	-0.0980664999999988	9.77723005
2026-04-07 14:59:37.195	-0.588399	-0.0980664999999988	9.77723005
2026-04-07 14:59:37.436	-0.40207265000000003	-0.02941994999999881	9.69877685
2026-04-07 14:59:37.696	-0.40207265000000003	-0.02941994999999881	9.69877685
2026-04-07 14:59:37.936	-0.08825985	-0.0490332499999988	9.8262633
2026-04-07 14:59:38.195	-0.08825985	-0.0490332499999988	9.8262633
2026-04-07 14:59:38.437	-0.16671305	-0.0980664999999988	9.8654899
2026-04-07 14:59:38.696	-0.16671305	-0.0980664999999988	9.8654899
2026-04-07 14:59:38.937	-0.1765197	-0.04903324999999879	9.87529655
2026-04-07 14:59:39.196	-0.1765197	-0.04903324999999879	9.87529655
2026-04-07 14:59:39.438	-0.16671305	-0.0490332499999988	9.81645665
2026-04-07 14:59:39.697	-0.16671305	-0.0490332499999988	9.81645665
2026-04-07 14:59:39.937	-0.1765197	-0.0196132999999988	9.81645665
2026-04-07 14:59:40.196	-0.1765197	-0.0196132999999988	9.81645665
2026-04-07 14:59:40.436	-0.28439285000000003	-0.1078731499999988	9.8851032
2026-04-07 14:59:40.696	-0.28439285000000003	-0.1078731499999988	9.8851032
2026-04-07 14:59:40.937	-0.18632635	-0.17651969999999878	9.81645665
2026-04-07 14:59:41.196	-0.18632635	-0.17651969999999878	9.81645665
2026-04-07 14:59:41.436	-0.1765197	0.1274864500000012	9.7870367
2026-04-07 14:59:41.697	-0.1765197	0.1274864500000012	9.7870367
2026-04-07 14:59:41.937	-0.196133	-0.0882598499999988	9.80665
2026-04-07 14:59:42.196	-0.196133	-0.0882598499999988	9.80665
2026-04-07 14:59:42.437	-0.1765197	0.0392266000000012	9.83606995
2026-04-07 14:59:42.697	-0.1765197	0.0392266000000012	9.83606995
2026-04-07 14:59:42.937	-0.2353596	0.009806650000001202	9.81645665
2026-04-07 14:59:43.196	-0.2353596	0.009806650000001202	9.81645665
2026-04-07 14:59:43.435	-0.16671305	-0.0882598499999988	9.80665
2026-04-07 14:59:43.697	-0.16671305	-0.0882598499999988	9.80665
2026-04-07 14:59:43.937	-0.2549729	-0.03922659999999879	9.8654899
2026-04-07 14:59:44.196	-0.2549729	-0.03922659999999879	9.8654899
2026-04-07 14:59:44.436	-0.10787315	-0.1863263499999988	9.7870367
2026-04-07 14:59:44.698	-0.10787315	-0.1863263499999988	9.7870367
2026-04-07 14:59:44.936	-0.22555295	-0.009806649999998794	9.8458766
2026-04-07 14:59:45.196	-0.22555295	-0.009806649999998794	9.8458766
2026-04-07 14:59:45.436	0.08825985	-0.058839899999998814	9.6693569
2026-04-07 14:59:45.696	0.08825985	-0.058839899999998814	9.6693569
2026-04-07 14:59:45.936	-0.40207265000000003	-0.0882598499999988	9.8851032
2026-04-07 14:59:46.196	-0.40207265000000003	-0.0882598499999988	9.8851032
2026-04-07 14:59:46.437	0.3530394	-0.058839899999998814	9.69877685
2026-04-07 14:59:46.696	0.3530394	-0.058839899999998814	9.69877685
2026-04-07 14:59:46.936	-0.5491724	-0.08825984999999877	10.05181625
2026-04-07 14:59:47.196	-0.5491724	-0.08825984999999877	10.05181625
2026-04-07 14:59:47.436	0.00980665	-0.05883989999999881	9.7085835
2026-04-07 14:59:47.695	0.00980665	-0.05883989999999881	9.7085835
2026-04-07 14:59:47.937	-0.392266	-0.05883989999999879	9.89490985
2026-04-07 14:59:48.197	-0.392266	-0.05883989999999879	9.89490985
2026-04-07 14:59:48.436	0.0	-0.06864654999999882	9.6889702
2026-04-07 14:59:48.696	0.0	-0.06864654999999882	9.6889702
2026-04-07 14:59:48.936	-0.3726527	-0.08825984999999878	9.95374975
2026-04-07 14:59:49.196	-0.3726527	-0.08825984999999878	9.95374975
2026-04-07 14:59:49.437	-0.0392266	-0.06864654999999881	9.73800345
2026-04-07 14:59:49.696	-0.0392266	-0.06864654999999881	9.73800345
2026-04-07 14:59:49.939	-0.36284605000000003	-0.029419949999998786	9.93413645
2026-04-07 14:59:50.198	-0.36284605000000003	-0.029419949999998786	9.93413645
2026-04-07 14:59:50.436	-0.1372931	0.04903325000000121	9.8654899
2026-04-07 14:59:50.702	-0.1372931	0.04903325000000121	9.8654899
2026-04-07 14:59:50.939	-0.1176798	-0.0784531999999988	9.85568325
2026-04-07 14:59:51.200	-0.1176798	-0.0784531999999988	9.85568325
2026-04-07 14:59:51.439	-0.1372931	-0.04903324999999879	9.85568325
2026-04-07 14:59:51.701	-0.1372931	-0.04903324999999879	9.85568325
2026-04-07 14:59:51.936	-0.02941995	0.11767980000000121	9.8262633
2026-04-07 14:59:52.195	-0.02941995	0.11767980000000121	9.8262633
2026-04-07 14:59:52.439	0.02941995	-0.0588398999999988	9.8458766
2026-04-07 14:59:52.694	0.02941995	-0.0588398999999988	9.8458766
2026-04-07 14:59:52.939	0.06864655	-0.04903324999999881	9.77723005
2026-04-07 14:59:53.195	0.06864655	-0.04903324999999881	9.77723005
2026-04-07 14:59:53.439	-0.196133	0.04903325000000122	9.9243298
2026-04-07 14:59:53.695	-0.196133	0.04903325000000122	9.9243298
2026-04-07 14:59:53.936	0.0	-0.0588398999999988	9.81645665
2026-04-07 14:59:54.196	0.0	-0.0588398999999988	9.81645665
2026-04-07 14:59:54.440	-0.08825985	-0.0686465499999988	9.7870367
2026-04-07 14:59:54.700	-0.08825985	-0.0686465499999988	9.7870367
2026-04-07 14:59:54.940	-0.08825985	1.1913605072595524e-15	9.7281968
2026-04-07 14:59:55.195	-0.08825985	1.1913605072595524e-15	9.7281968
2026-04-07 14:59:55.437	-0.1372931	-0.1470997499999988	9.8654899
2026-04-07 14:59:55.695	-0.1372931	-0.1470997499999988	9.8654899
2026-04-07 14:59:55.939	-0.22555295	0.02941995000000123	10.03220295
2026-04-07 14:59:56.196	-0.22555295	0.02941995000000123	10.03220295
2026-04-07 14:59:56.436	-0.1765197	-0.0784531999999988	9.91452315
2026-04-07 14:59:56.697	-0.1765197	-0.0784531999999988	9.91452315
2026-04-07 14:59:56.940	-0.12748645	-0.0588398999999988	9.8262633
2026-04-07 14:59:57.195	-0.12748645	-0.0588398999999988	9.8262633
2026-04-07 14:59:57.440	-0.16671305	-0.0980664999999988	9.79684335
2026-04-07 14:59:57.694	-0.16671305	-0.0980664999999988	9.79684335
2026-04-07 14:59:57.940	-0.12748645	-0.0196132999999988	9.79684335
2026-04-07 14:59:58.195	-0.12748645	-0.0196132999999988	9.79684335
2026-04-07 14:59:58.437	-0.16671305	-0.0784531999999988	9.85568325
2026-04-07 14:59:58.695	-0.16671305	-0.0784531999999988	9.85568325
2026-04-07 14:59:58.940	-0.1372931	-0.0784531999999988	9.8654899
2026-04-07 14:59:59.196	-0.1372931	-0.0784531999999988	9.8654899
2026-04-07 14:59:59.436	-0.16671305	-0.0686465499999988	9.8458766
2026-04-07 14:59:59.695	-0.16671305	-0.0686465499999988	9.8458766
2026-04-07 14:59:59.936	-0.12748645	-0.0588398999999988	9.79684335
2026-04-07 15:00:00.196	-0.12748645	-0.0588398999999988	9.79684335
2026-04-07 15:00:00.435	-0.1569064	-0.0588398999999988	9.83606995
2026-04-07 15:00:00.697	-0.1569064	-0.0588398999999988	9.83606995
2026-04-07 15:00:00.937	-0.12748645	-0.0784531999999988	9.83606995
2026-04-07 15:00:01.196	-0.12748645	-0.0784531999999988	9.83606995
2026-04-07 15:00:01.436	-0.16671305	-0.03922659999999879	9.8458766
2026-04-07 15:00:01.696	-0.16671305	-0.03922659999999879	9.8458766
2026-04-07 15:00:01.937	-0.20593965	1.2105759993121259e-15	9.8851032
2026-04-07 15:00:02.195	-0.20593965	1.2105759993121259e-15	9.8851032
2026-04-07 15:00:02.437	-0.0784532	0.07845320000000121	9.80665
2026-04-07 15:00:02.696	-0.0784532	0.07845320000000121	9.80665
2026-04-07 15:00:02.936	-0.1569064	-0.06864654999999881	9.7674234
2026-04-07 15:00:03.196	-0.1569064	-0.06864654999999881	9.7674234
2026-04-07 15:00:03.437	-0.18632635	-0.03922659999999879	9.83606995
2026-04-07 15:00:03.696	-0.18632635	-0.03922659999999879	9.83606995
2026-04-07 15:00:03.937	-0.1569064	-0.0784531999999988	9.8851032
2026-04-07 15:00:04.194	-0.1569064	-0.0784531999999988	9.8851032
2026-04-07 15:00:04.435	-0.2549729	-0.03922659999999878	9.9635564
2026-04-07 15:00:04.695	-0.2549729	-0.03922659999999878	9.9635564
2026-04-07 15:00:04.936	-0.16671305	-0.11767979999999878	9.89490985
2026-04-07 15:00:05.194	-0.16671305	-0.11767979999999878	9.89490985
2026-04-07 15:00:05.435	-0.1569064	-0.0490332499999988	9.8262633
2026-04-07 15:00:05.696	-0.1569064	-0.0490332499999988	9.8262633
2026-04-07 15:00:05.937	0.00980665	0.09806650000000118	9.71839015
2026-04-07 15:00:06.198	0.00980665	0.09806650000000118	9.71839015
2026-04-07 15:00:06.436	-0.16671305	-0.0294199499999988	9.80665
2026-04-07 15:00:06.696	-0.16671305	-0.0294199499999988	9.80665
2026-04-07 15:00:06.937	-0.0784532	-0.16671304999999878	9.81645665
2026-04-07 15:00:07.196	-0.0784532	-0.16671304999999878	9.81645665
2026-04-07 15:00:07.436	-0.24516625	0.3040061500000012	9.99297635
2026-04-07 15:00:07.694	-0.24516625	0.3040061500000012	9.99297635
2026-04-07 15:00:07.936	-0.08825985	-0.19613299999999878	9.9243298
2026-04-07 15:00:08.196	-0.08825985	-0.19613299999999878	9.9243298
2026-04-07 15:00:08.436	0.06864655	-0.08825984999999882	9.71839015
2026-04-07 15:00:08.695	0.06864655	-0.08825984999999882	9.71839015
2026-04-07 15:00:08.935	-0.20593965	1.18055179297998e-15	9.639936950000001
2026-04-07 15:00:09.195	-0.20593965	1.18055179297998e-15	9.639936950000001
2026-04-07 15:00:09.436	-0.1765197	-0.17651969999999878	9.81645665
2026-04-07 15:00:09.696	-0.1765197	-0.17651969999999878	9.81645665
2026-04-07 15:00:09.938	-0.1765197	-0.11767979999999877	10.1008495
2026-04-07 15:00:10.195	-0.1765197	-0.11767979999999877	10.1008495
2026-04-07 15:00:10.436	-0.1176798	1.2249876183515559e-15	10.002783
2026-04-07 15:00:10.696	-0.1176798	1.2249876183515559e-15	10.002783
2026-04-07 15:00:10.936	-0.0980665	0.07845320000000121	9.8851032
2026-04-07 15:00:11.195	-0.0980665	0.07845320000000121	9.8851032
2026-04-07 15:00:11.435	-0.10787315	-0.2157462999999988	9.639936950000001
2026-04-07 15:00:11.696	-0.10787315	-0.2157462999999988	9.639936950000001
2026-04-07 15:00:11.935	-0.12748645	-0.1274864499999988	9.8851032
2026-04-07 15:00:12.195	-0.12748645	-0.1274864499999988	9.8851032
2026-04-07 15:00:12.437	-0.1569064	-0.1274864499999988	9.87529655
2026-04-07 15:00:12.695	-0.1569064	-0.1274864499999988	9.87529655
2026-04-07 15:00:12.935	-0.16671305	-0.0686465499999988	9.83606995
2026-04-07 15:00:13.196	-0.16671305	-0.0686465499999988	9.83606995
2026-04-07 15:00:13.436	-0.10787315	-0.1372930999999988	9.73800345
2026-04-07 15:00:13.695	-0.10787315	-0.1372930999999988	9.73800345
2026-04-07 15:00:13.936	-0.2941995	0.11767980000000121	9.80665
2026-04-07 15:00:14.205	-0.2941995	0.11767980000000121	9.80665
2026-04-07 15:00:14.436	-0.1569064	-0.0588398999999988	9.8458766
2026-04-07 15:00:14.695	-0.1569064	-0.0588398999999988	9.8458766
2026-04-07 15:00:14.936	-0.1372931	-0.0980664999999988	9.87529655
2026-04-07 15:00:15.195	-0.1372931	-0.0980664999999988	9.87529655
2026-04-07 15:00:15.436	-0.24516625	-0.12748644999999878	9.93413645
2026-04-07 15:00:15.696	-0.24516625	-0.12748644999999878	9.93413645
2026-04-07 15:00:15.935	0.0	-0.06864654999999881	9.7281968
2026-04-07 15:00:16.195	0.0	-0.06864654999999881	9.7281968
2026-04-07 15:00:16.437	-0.20593965	-0.0980664999999988	9.83606995
2026-04-07 15:00:16.695	-0.20593965	-0.0980664999999988	9.83606995
2026-04-07 15:00:16.935	-0.06864655	-0.0882598499999988	9.79684335
2026-04-07 15:00:17.195	-0.06864655	-0.0882598499999988	9.79684335
2026-04-07 15:00:17.435	-0.20593965	-0.05883989999999879	9.8851032
2026-04-07 15:00:17.695	-0.20593965	-0.05883989999999879	9.8851032
2026-04-07 15:00:17.935	-0.0784532	-0.0588398999999988	9.81645665
2026-04-07 15:00:18.195	-0.0784532	-0.0588398999999988	9.81645665
2026-04-07 15:00:18.436	-0.1765197	-0.0882598499999988	9.8654899
2026-04-07 15:00:18.697	-0.1765197	-0.0882598499999988	9.8654899
2026-04-07 15:00:18.936	-0.1176798	-0.0490332499999988	9.80665
2026-04-07 15:00:19.195	-0.1176798	-0.0490332499999988	9.80665
2026-04-07 15:00:19.436	-0.16671305	-0.0686465499999988	9.83606995
2026-04-07 15:00:19.695	-0.16671305	-0.0686465499999988	9.83606995
2026-04-07 15:00:19.936	-0.1176798	-0.0294199499999988	9.80665
2026-04-07 15:00:20.196	-0.1176798	-0.0294199499999988	9.80665
2026-04-07 15:00:20.436	-0.14709975	-0.0784531999999988	9.83606995
2026-04-07 15:00:20.695	-0.14709975	-0.0784531999999988	9.83606995
2026-04-07 15:00:20.935	-0.1569064	-0.0980664999999988	9.85568325
2026-04-07 15:00:21.194	-0.1569064	-0.0980664999999988	9.85568325
2026-04-07 15:00:21.435	-0.12748645	-0.009806649999998798	9.81645665
2026-04-07 15:00:21.695	-0.12748645	-0.009806649999998798	9.81645665
2026-04-07 15:00:21.936	-0.18632635	-0.1078731499999988	9.8458766
2026-04-07 15:00:22.195	-0.18632635	-0.1078731499999988	9.8458766
2026-04-07 15:00:22.437	-0.0784532	1.1973653485259817e-15	9.77723005
2026-04-07 15:00:22.694	-0.0784532	1.1973653485259817e-15	9.77723005
2026-04-07 15:00:22.936	-0.18632635	-0.1176797999999988	9.87529655
2026-04-07 15:00:23.195	-0.18632635	-0.1176797999999988	9.87529655
2026-04-07 15:00:23.436	-0.10787315	-0.0588398999999988	9.81645665
2026-04-07 15:00:23.695	-0.10787315	-0.0588398999999988	9.81645665
2026-04-07 15:00:23.936	-0.18632635	-0.0490332499999988	9.8458766
2026-04-07 15:00:24.195	-0.18632635	-0.0490332499999988	9.8458766
2026-04-07 15:00:24.436	-0.12748645	-0.0686465499999988	9.80665
2026-04-07 15:00:24.695	-0.12748645	-0.0686465499999988	9.80665
2026-04-07 15:00:24.936	-0.14709975	-0.009806649999998796	9.8262633
2026-04-07 15:00:25.195	-0.14709975	-0.009806649999998796	9.8262633
2026-04-07 15:00:25.436	-0.1372931	-0.1176797999999988	9.85568325
2026-04-07 15:00:25.695	-0.1372931	-0.1176797999999988	9.85568325
2026-04-07 15:00:25.937	-0.1372931	-0.029419949999998793	9.8458766
2026-04-07 15:00:26.196	-0.1372931	-0.029419949999998793	9.8458766
2026-04-07 15:00:26.435	-0.16671305	-0.0980664999999988	9.8458766
2026-04-07 15:00:26.696	-0.16671305	-0.0980664999999988	9.8458766
2026-04-07 15:00:26.936	-0.1372931	-0.0294199499999988	9.80665
2026-04-07 15:00:27.195	-0.1372931	-0.0294199499999988	9.80665
2026-04-07 15:00:27.436	-0.14709975	-0.0490332499999988	9.81645665
2026-04-07 15:00:27.694	-0.14709975	-0.0490332499999988	9.81645665
2026-04-07 15:00:27.936	-0.1569064	-0.0686465499999988	9.8458766
2026-04-07 15:00:28.196	-0.1569064	-0.0686465499999988	9.8458766
2026-04-07 15:00:28.436	-0.12748645	-0.029419949999998793	9.83606995
2026-04-07 15:00:28.694	-0.12748645	-0.029419949999998793	9.83606995
2026-04-07 15:00:28.936	-0.16671305	-0.1078731499999988	9.83606995
2026-04-07 15:00:29.195	-0.16671305	-0.1078731499999988	9.83606995
2026-04-07 15:00:29.435	-0.12748645	-0.0392265999999988	9.80665
2026-04-07 15:00:29.695	-0.12748645	-0.0392265999999988	9.80665
2026-04-07 15:00:29.937	-0.1765197	-0.0686465499999988	9.83606995
2026-04-07 15:00:30.195	-0.1765197	-0.0686465499999988	9.83606995
2026-04-07 15:00:30.435	-0.12748645	-0.0490332499999988	9.8262633
2026-04-07 15:00:30.696	-0.12748645	-0.0490332499999988	9.8262633
2026-04-07 15:00:30.936	-0.14709975	-0.0490332499999988	9.8458766
2026-04-07 15:00:31.199	-0.14709975	-0.0490332499999988	9.8458766
2026-04-07 15:00:31.436	-0.14709975	-0.1176797999999988	9.8458766
2026-04-07 15:00:31.699	-0.14709975	-0.1176797999999988	9.8458766
2026-04-07 15:00:31.936	-0.1569064	-0.03922659999999879	9.83606995
2026-04-07 15:00:32.197	-0.1569064	-0.03922659999999879	9.83606995
2026-04-07 15:00:32.437	-0.16671305	-0.0686465499999988	9.83606995
2026-04-07 15:00:32.696	-0.16671305	-0.0686465499999988	9.83606995
2026-04-07 15:00:32.936	-0.12748645	-0.0588398999999988	9.80665
2026-04-07 15:00:33.198	-0.12748645	-0.0588398999999988	9.80665
2026-04-07 15:00:33.440	-0.14709975	-0.03922659999999879	9.8458766
2026-04-07 15:00:33.695	-0.14709975	-0.03922659999999879	9.8458766
2026-04-07 15:00:33.937	-0.1372931	-0.0784531999999988	9.83606995
2026-04-07 15:00:34.195	-0.1372931	-0.0784531999999988	9.83606995
2026-04-07 15:00:34.439	-0.14709975	-0.0882598499999988	9.8262633
2026-04-07 15:00:34.695	-0.14709975	-0.0882598499999988	9.8262633
2026-04-07 15:00:34.938	-0.14709975	-0.029419949999998793	9.83606995
2026-04-07 15:00:35.196	-0.14709975	-0.029419949999998793	9.83606995
2026-04-07 15:00:35.435	-0.14709975	-0.0784531999999988	9.83606995
2026-04-07 15:00:35.695	-0.14709975	-0.0784531999999988	9.83606995
2026-04-07 15:00:35.939	-0.12748645	-0.0588398999999988	9.8262633
2026-04-07 15:00:36.196	-0.12748645	-0.0588398999999988	9.8262633
2026-04-07 15:00:36.435	-0.16671305	-0.0686465499999988	9.83606995
2026-04-07 15:00:36.694	-0.16671305	-0.0686465499999988	9.83606995
2026-04-07 15:00:36.936	-0.1372931	-0.0686465499999988	9.8262633
2026-04-07 15:00:37.195	-0.1372931	-0.0686465499999988	9.8262633
2026-04-07 15:00:37.436	-0.14709975	-0.0294199499999988	9.8262633
2026-04-07 15:00:37.694	-0.14709975	-0.0294199499999988	9.8262633
2026-04-07 15:00:37.935	-0.12748645	-0.0686465499999988	9.8262633
2026-04-07 15:00:38.194	-0.12748645	-0.0686465499999988	9.8262633
2026-04-07 15:00:38.435	-0.14709975	-0.0882598499999988	9.8262633
2026-04-07 15:00:38.695	-0.14709975	-0.0882598499999988	9.8262633
2026-04-07 15:00:38.936	-0.1569064	-0.03922659999999879	9.83606995
2026-04-07 15:00:39.196	-0.1569064	-0.03922659999999879	9.83606995
2026-04-07 15:00:39.435	-0.16671305	-0.0784531999999988	9.83606995
2026-04-07 15:00:39.695	-0.16671305	-0.0784531999999988	9.83606995
2026-04-07 15:00:39.940	-0.12748645	-0.0294199499999988	9.81645665
2026-04-07 15:00:40.197	-0.12748645	-0.0294199499999988	9.81645665
2026-04-07 15:00:40.435	-0.1569064	-0.0588398999999988	9.8262633
2026-04-07 15:00:40.695	-0.1569064	-0.0588398999999988	9.8262633
2026-04-07 15:00:40.940	-0.12748645	-0.0784531999999988	9.8262633
2026-04-07 15:00:41.196	-0.12748645	-0.0784531999999988	9.8262633
2026-04-07 15:00:41.437	-0.16671305	-0.0686465499999988	9.85568325
2026-04-07 15:00:41.695	-0.16671305	-0.0686465499999988	9.85568325
2026-04-07 15:00:41.936	-0.1569064	-0.0784531999999988	9.83606995
2026-04-07 15:00:42.195	-0.1569064	-0.0784531999999988	9.83606995
2026-04-07 15:00:42.435	-0.14709975	-0.0392265999999988	9.81645665
2026-04-07 15:00:42.693	-0.14709975	-0.0392265999999988	9.81645665
2026-04-07 15:00:42.937	-0.14709975	-0.0392265999999988	9.80665
2026-04-07 15:00:43.195	-0.14709975	-0.0392265999999988	9.80665
2026-04-07 15:00:43.437	-0.1372931	-0.0784531999999988	9.83606995
2026-04-07 15:00:43.696	-0.1372931	-0.0784531999999988	9.83606995
2026-04-07 15:00:43.935	-0.14709975	-0.0588398999999988	9.83606995
2026-04-07 15:00:44.194	-0.14709975	-0.0588398999999988	9.83606995
2026-04-07 15:00:44.436	-0.1569064	-0.0882598499999988	9.85568325
2026-04-07 15:00:44.698	-0.1569064	-0.0882598499999988	9.85568325
2026-04-07 15:00:44.935	-0.1569064	-0.0392265999999988	9.81645665
2026-04-07 15:00:45.197	-0.1569064	-0.0392265999999988	9.81645665
2026-04-07 15:00:45.440	-0.1569064	-0.0490332499999988	9.8262633
2026-04-07 15:00:45.693	-0.1569064	-0.0490332499999988	9.8262633
2026-04-07 15:00:45.939	-0.12748645	-0.0490332499999988	9.8262633
2026-04-07 15:00:46.198	-0.12748645	-0.0490332499999988	9.8262633
2026-04-07 15:00:46.437	-0.14709975	-0.0784531999999988	9.85568325
2026-04-07 15:00:46.694	-0.14709975	-0.0784531999999988	9.85568325
2026-04-07 15:00:46.937	-0.14709975	-0.0490332499999988	9.8262633
2026-04-07 15:00:47.195	-0.14709975	-0.0490332499999988	9.8262633
2026-04-07 15:00:47.435	-0.16671305	-0.0980664999999988	9.8262633
2026-04-07 15:00:47.694	-0.16671305	-0.0980664999999988	9.8262633
2026-04-07 15:00:47.939	-0.1176798	-0.0196132999999988	9.81645665
2026-04-07 15:00:48.195	-0.1176798	-0.0196132999999988	9.81645665
2026-04-07 15:00:48.435	-0.16671305	-0.0784531999999988	9.85568325
2026-04-07 15:00:48.695	-0.16671305	-0.0784531999999988	9.85568325
2026-04-07 15:00:48.939	-0.1372931	-0.0686465499999988	9.80665
2026-04-07 15:00:49.195	-0.1372931	-0.0686465499999988	9.80665
2026-04-07 15:00:49.435	-0.1569064	-0.0392265999999988	9.8262633
2026-04-07 15:00:49.695	-0.1569064	-0.0392265999999988	9.8262633
2026-04-07 15:00:49.934	-0.12748645	-0.0588398999999988	9.8262633
2026-04-07 15:00:50.194	-0.12748645	-0.0588398999999988	9.8262633
2026-04-07 15:00:50.436	-0.14709975	-0.0784531999999988	9.8654899
2026-04-07 15:00:50.694	-0.14709975	-0.0784531999999988	9.8654899
2026-04-07 15:00:50.939	-0.1372931	-0.0588398999999988	9.8262633
2026-04-07 15:00:51.194	-0.1372931	-0.0588398999999988	9.8262633
2026-04-07 15:00:51.436	-0.14709975	-0.0882598499999988	9.83606995
2026-04-07 15:00:51.698	-0.14709975	-0.0882598499999988	9.83606995
2026-04-07 15:00:51.936	-0.1569064	-0.0490332499999988	9.80665
2026-04-07 15:00:52.201	-0.1569064	-0.0490332499999988	9.80665
2026-04-07 15:00:52.440	-0.14709975	-0.0588398999999988	9.8458766
2026-04-07 15:00:52.694	-0.14709975	-0.0588398999999988	9.8458766
2026-04-07 15:00:52.935	-0.14709975	-0.0490332499999988	9.83606995
2026-04-07 15:00:53.195	-0.14709975	-0.0490332499999988	9.83606995
2026-04-07 15:00:53.438	-0.1569064	-0.0882598499999988	9.85568325
2026-04-07 15:00:53.696	-0.1569064	-0.0882598499999988	9.85568325
2026-04-07 15:00:53.935	-0.1372931	-0.0392265999999988	9.80665
2026-04-07 15:00:54.196	-0.1372931	-0.0392265999999988	9.80665
2026-04-07 15:00:54.434	-0.16671305	-0.0784531999999988	9.83606995
2026-04-07 15:00:54.695	-0.16671305	-0.0784531999999988	9.83606995
2026-04-07 15:00:54.938	-0.12748645	-0.0294199499999988	9.81645665
2026-04-07 15:00:55.196	-0.12748645	-0.0294199499999988	9.81645665
2026-04-07 15:00:55.435	-0.1569064	-0.0490332499999988	9.8458766
2026-04-07 15:00:55.695	-0.1569064	-0.0490332499999988	9.8458766
2026-04-07 15:00:55.939	-0.12748645	-0.0784531999999988	9.80665
2026-04-07 15:00:56.195	-0.12748645	-0.0784531999999988	9.80665
2026-04-07 15:00:56.437	-0.1569064	-0.0882598499999988	9.85568325
2026-04-07 15:00:56.695	-0.1569064	-0.0882598499999988	9.85568325
2026-04-07 15:00:56.936	-0.14709975	-0.0588398999999988	9.81645665
2026-04-07 15:00:57.195	-0.14709975	-0.0588398999999988	9.81645665
2026-04-07 15:00:57.435	-0.16671305	-0.0490332499999988	9.8458766
2026-04-07 15:00:57.695	-0.16671305	-0.0490332499999988	9.8458766
2026-04-07 15:00:57.938	-0.1372931	-0.0392265999999988	9.79684335
2026-04-07 15:00:58.194	-0.1372931	-0.0392265999999988	9.79684335
2026-04-07 15:00:58.437	-0.1372931	-0.0686465499999988	9.8458766
2026-04-07 15:00:58.694	-0.1372931	-0.0686465499999988	9.8458766
2026-04-07 15:00:58.938	-0.14709975	-0.0784531999999988	9.83606995
2026-04-07 15:00:59.194	-0.14709975	-0.0784531999999988	9.83606995
2026-04-07 15:00:59.438	-0.1569064	-0.0588398999999988	9.8458766
2026-04-07 15:00:59.695	-0.1569064	-0.0588398999999988	9.8458766
2026-04-07 15:00:59.934	-0.1569064	-0.0588398999999988	9.80665
2026-04-07 15:01:00.196	-0.1569064	-0.0588398999999988	9.80665
2026-04-07 15:01:00.435	-0.1569064	-0.0588398999999988	9.8262633
2026-04-07 15:01:00.695	-0.1569064	-0.0588398999999988	9.8262633
2026-04-07 15:01:00.937	-0.1372931	-0.0392265999999988	9.8262633
2026-04-07 15:01:01.194	-0.1372931	-0.0392265999999988	9.8262633
2026-04-07 15:01:01.438	-0.14709975	-0.0686465499999988	9.8458766
2026-04-07 15:01:01.694	-0.14709975	-0.0686465499999988	9.8458766
2026-04-07 15:01:01.935	-0.1372931	-0.0490332499999988	9.8262633
2026-04-07 15:01:02.198	-0.1372931	-0.0490332499999988	9.8262633
2026-04-07 15:01:02.438	-0.1569064	-0.0784531999999988	9.83606995
2026-04-07 15:01:02.692	-0.1569064	-0.0784531999999988	9.83606995
2026-04-07 15:01:02.938	-0.14709975	-0.0784531999999988	9.83606995
2026-04-07 15:01:03.194	-0.14709975	-0.0784531999999988	9.83606995
2026-04-07 15:01:03.435	-0.16671305	-0.05883989999999879	9.8654899
2026-04-07 15:01:03.693	-0.16671305	-0.05883989999999879	9.8654899
2026-04-07 15:01:03.935	-0.12748645	-0.0392265999999988	9.8262633
2026-04-07 15:01:04.194	-0.12748645	-0.0392265999999988	9.8262633
2026-04-07 15:01:04.435	-0.14709975	-0.0882598499999988	9.80665
2026-04-07 15:01:04.694	-0.14709975	-0.0882598499999988	9.80665
2026-04-07 15:01:04.936	-0.1569064	-0.0882598499999988	9.83606995
2026-04-07 15:01:05.197	-0.1569064	-0.0882598499999988	9.83606995
2026-04-07 15:01:05.439	-0.1569064	-0.029419949999998793	9.8458766
2026-04-07 15:01:05.698	-0.1569064	-0.029419949999998793	9.8458766
2026-04-07 15:01:05.936	-0.1372931	-0.03922659999999879	9.83606995
2026-04-07 15:01:06.194	-0.1372931	-0.03922659999999879	9.83606995
2026-04-07 15:01:06.438	-0.1372931	-0.0784531999999988	9.8262633
2026-04-07 15:01:06.694	-0.1372931	-0.0784531999999988	9.8262633
2026-04-07 15:01:06.934	-0.14709975	-0.0784531999999988	9.83606995
2026-04-07 15:01:07.195	-0.14709975	-0.0784531999999988	9.83606995
2026-04-07 15:01:07.435	-0.1569064	-0.0490332499999988	9.83606995
2026-04-07 15:01:07.694	-0.1569064	-0.0490332499999988	9.83606995
2026-04-07 15:01:07.938	-0.16671305	-0.0686465499999988	9.85568325
2026-04-07 15:01:08.194	-0.16671305	-0.0686465499999988	9.85568325
2026-04-07 15:01:08.435	-0.14709975	-0.0196132999999988	9.81645665
2026-04-07 15:01:08.694	-0.14709975	-0.0196132999999988	9.81645665
2026-04-07 15:01:08.934	-0.12748645	-0.0784531999999988	9.8458766
2026-04-07 15:01:09.194	-0.12748645	-0.0784531999999988	9.8458766
2026-04-07 15:01:09.438	-0.14709975	-0.0686465499999988	9.81645665
2026-04-07 15:01:09.694	-0.14709975	-0.0686465499999988	9.81645665
2026-04-07 15:01:09.938	-0.1569064	-0.0686465499999988	9.8458766
2026-04-07 15:01:10.196	-0.1569064	-0.0686465499999988	9.8458766
2026-04-07 15:01:10.438	-0.14709975	-0.0588398999999988	9.8262633
2026-04-07 15:01:10.694	-0.14709975	-0.0588398999999988	9.8262633
2026-04-07 15:01:10.934	-0.1569064	-0.0392265999999988	9.8262633
2026-04-07 15:01:11.194	-0.1569064	-0.0392265999999988	9.8262633
2026-04-07 15:01:11.435	-0.1372931	-0.0588398999999988	9.8262633
2026-04-07 15:01:11.694	-0.1372931	-0.0588398999999988	9.8262633
2026-04-07 15:01:11.938	-0.1372931	-0.0392265999999988	9.8262633
2026-04-07 15:01:12.194	-0.1372931	-0.0392265999999988	9.8262633
2026-04-07 15:01:12.435	-0.1372931	-0.0784531999999988	9.83606995
2026-04-07 15:01:12.693	-0.1372931	-0.0784531999999988	9.83606995
2026-04-07 15:01:12.937	-0.14709975	-0.0588398999999988	9.83606995
2026-04-07 15:01:13.197	-0.14709975	-0.0588398999999988	9.83606995
2026-04-07 15:01:13.433	-0.14709975	-0.0882598499999988	9.8458766
2026-04-07 15:01:13.696	-0.14709975	-0.0882598499999988	9.8458766
2026-04-07 15:01:13.938	-0.1569064	-0.0588398999999988	9.8262633
2026-04-07 15:01:14.194	-0.1569064	-0.0588398999999988	9.8262633
2026-04-07 15:01:14.437	-0.14709975	-0.0490332499999988	9.81645665
2026-04-07 15:01:14.700	-0.14709975	-0.0490332499999988	9.81645665
2026-04-07 15:01:14.934	-0.14709975	-0.0490332499999988	9.8262633
2026-04-07 15:01:15.194	-0.14709975	-0.0490332499999988	9.8262633
2026-04-07 15:01:15.439	-0.1372931	-0.0588398999999988	9.83606995
2026-04-07 15:01:15.694	-0.1372931	-0.0588398999999988	9.83606995
2026-04-07 15:01:15.938	-0.14709975	-0.0882598499999988	9.8458766
2026-04-07 15:01:16.194	-0.14709975	-0.0882598499999988	9.8458766
2026-04-07 15:01:16.433	-0.1569064	-0.0686465499999988	9.8262633
2026-04-07 15:01:16.695	-0.1569064	-0.0686465499999988	9.8262633
2026-04-07 15:01:16.936	-0.14709975	-0.0294199499999988	9.8262633
2026-04-07 15:01:17.195	-0.14709975	-0.0294199499999988	9.8262633
2026-04-07 15:01:17.438	-0.1372931	-0.0686465499999988	9.8262633
2026-04-07 15:01:17.694	-0.1372931	-0.0686465499999988	9.8262633
2026-04-07 15:01:17.935	-0.14709975	-0.0784531999999988	9.83606995
2026-04-07 15:01:18.195	-0.14709975	-0.0784531999999988	9.83606995
2026-04-07 15:01:18.436	-0.1569064	-0.0882598499999988	9.85568325
2026-04-07 15:01:18.695	-0.1569064	-0.0882598499999988	9.85568325
2026-04-07 15:01:18.934	-0.1569064	-0.0392265999999988	9.8262633
2026-04-07 15:01:19.194	-0.1569064	-0.0392265999999988	9.8262633
2026-04-07 15:01:19.433	-0.14709975	-0.0392265999999988	9.81645665
2026-04-07 15:01:19.698	-0.14709975	-0.0392265999999988	9.81645665
2026-04-07 15:01:19.938	-0.1372931	-0.0686465499999988	9.81645665
2026-04-07 15:01:20.194	-0.1372931	-0.0686465499999988	9.81645665
2026-04-07 15:01:20.433	-0.14709975	-0.0686465499999988	9.8458766
2026-04-07 15:01:20.694	-0.14709975	-0.0686465499999988	9.8458766
2026-04-07 15:01:20.939	-0.1569064	-0.0784531999999988	9.8458766
2026-04-07 15:01:21.195	-0.1569064	-0.0784531999999988	9.8458766
2026-04-07 15:01:21.438	-0.1372931	-0.0686465499999988	9.83606995
2026-04-07 15:01:21.694	-0.1372931	-0.0686465499999988	9.83606995
2026-04-07 15:01:21.937	-0.14709975	-0.0294199499999988	9.8262633
2026-04-07 15:01:22.194	-0.14709975	-0.0294199499999988	9.8262633
2026-04-07 15:01:22.437	-0.14709975	-0.0784531999999988	9.8262633
2026-04-07 15:01:22.693	-0.14709975	-0.0784531999999988	9.8262633
2026-04-07 15:01:22.934	-0.1569064	-0.0686465499999988	9.8262633
2026-04-07 15:01:23.196	-0.1569064	-0.0686465499999988	9.8262633
2026-04-07 15:01:23.434	-0.14709975	-0.0490332499999988	9.8458766
2026-04-07 15:01:23.695	-0.14709975	-0.0490332499999988	9.8458766
2026-04-07 15:01:23.938	-0.14709975	-0.0490332499999988	9.83606995
2026-04-07 15:01:24.195	-0.14709975	-0.0490332499999988	9.83606995
2026-04-07 15:01:24.438	-0.1372931	-0.0392265999999988	9.81645665
2026-04-07 15:01:24.694	-0.1372931	-0.0392265999999988	9.81645665
2026-04-07 15:01:24.935	-0.1372931	-0.0882598499999988	9.8262633
2026-04-07 15:01:25.196	-0.1372931	-0.0882598499999988	9.8262633
2026-04-07 15:01:25.438	-0.14709975	-0.0490332499999988	9.8262633
2026-04-07 15:01:25.696	-0.14709975	-0.0490332499999988	9.8262633
2026-04-07 15:01:25.934	-0.1569064	-0.0980664999999988	9.8458766
2026-04-07 15:01:26.194	-0.1569064	-0.0980664999999988	9.8458766
2026-04-07 15:01:26.433	-0.16671305	-0.0490332499999988	9.83606995
2026-04-07 15:01:26.693	-0.16671305	-0.0490332499999988	9.83606995
2026-04-07 15:01:26.934	-0.14709975	-0.0294199499999988	9.81645665
2026-04-07 15:01:27.193	-0.14709975	-0.0294199499999988	9.81645665
2026-04-07 15:01:27.438	-0.1372931	-0.0882598499999988	9.81645665
2026-04-07 15:01:27.693	-0.1372931	-0.0882598499999988	9.81645665
2026-04-07 15:01:27.938	-0.1372931	-0.0392265999999988	9.8262633
2026-04-07 15:01:28.197	-0.1372931	-0.0392265999999988	9.8262633
2026-04-07 15:01:28.434	-0.14709975	-0.0882598499999988	9.85568325
2026-04-07 15:01:28.694	-0.14709975	-0.0882598499999988	9.85568325
2026-04-07 15:01:28.937	-0.14709975	-0.0980664999999988	9.8262633
2026-04-07 15:01:29.196	-0.14709975	-0.0980664999999988	9.8262633
2026-04-07 15:01:29.435	-0.1569064	-0.0196132999999988	9.81645665
2026-04-07 15:01:29.694	-0.1569064	-0.0196132999999988	9.81645665
2026-04-07 15:01:29.938	-0.1372931	-0.0784531999999988	9.81645665
2026-04-07 15:01:30.198	-0.1372931	-0.0784531999999988	9.81645665
2026-04-07 15:01:30.434	-0.1569064	-0.0882598499999988	9.83606995
2026-04-07 15:01:30.693	-0.1569064	-0.0882598499999988	9.83606995
2026-04-07 15:01:30.936	-0.26477955	0.10787315000000122	9.93413645
2026-04-07 15:01:31.193	-0.26477955	0.10787315000000122	9.93413645
2026-04-07 15:01:31.433	-0.1569064	-0.009806649999998803	9.7674234
2026-04-07 15:01:31.694	-0.1569064	-0.009806649999998803	9.7674234
2026-04-07 15:01:31.938	-0.2157463	0.09806650000000118	9.639936950000001
2026-04-07 15:01:32.193	-0.2157463	0.09806650000000118	9.639936950000001
2026-04-07 15:01:32.434	-0.14709975	-0.3236194499999988	9.8851032
2026-04-07 15:01:32.692	-0.14709975	-0.3236194499999988	9.8851032
2026-04-07 15:01:32.937	-0.0784532	-0.039226599999998786	9.91452315
2026-04-07 15:01:33.199	-0.0784532	-0.039226599999998786	9.91452315
2026-04-07 15:01:33.437	-0.3334261	-0.019613299999998817	9.6693569
2026-04-07 15:01:33.697	-0.3334261	-0.019613299999998817	9.6693569
2026-04-07 15:01:33.934	-0.18632635	-0.1470997499999988	9.65955025
2026-04-07 15:01:34.195	-0.18632635	-0.1470997499999988	9.65955025
2026-04-07 15:01:34.435	-0.36284605000000003	-0.23535959999999878	9.87529655
2026-04-07 15:01:34.695	-0.36284605000000003	-0.23535959999999878	9.87529655
2026-04-07 15:01:34.934	-0.20593965	-0.14709974999999878	9.9243298
2026-04-07 15:01:35.197	-0.20593965	-0.14709974999999878	9.9243298
2026-04-07 15:01:35.435	-0.02941995	-0.21574629999999878	9.8458766
2026-04-07 15:01:35.694	-0.02941995	-0.21574629999999878	9.8458766
2026-04-07 15:01:35.938	-0.61781895	0.04903325000000121	9.9047165
2026-04-07 15:01:36.195	-0.61781895	0.04903325000000121	9.9047165
2026-04-07 15:01:36.438	-0.1765197	-0.029419949999998803	9.79684335
2026-04-07 15:01:36.700	-0.1765197	-0.029419949999998803	9.79684335
2026-04-07 15:01:36.939	-0.0392266	-0.11767979999999882	9.7085835
2026-04-07 15:01:37.194	-0.0392266	-0.11767979999999882	9.7085835
2026-04-07 15:01:37.432	-0.2353596	-0.1078731499999988	9.80665
2026-04-07 15:01:37.692	-0.2353596	-0.1078731499999988	9.80665
2026-04-07 15:01:37.935	-0.06864655	-0.1569063999999988	9.77723005
2026-04-07 15:01:38.197	-0.06864655	-0.1569063999999988	9.77723005
2026-04-07 15:01:38.434	-0.2549729	-0.09806649999999878	9.9635564
2026-04-07 15:01:38.697	-0.2549729	-0.09806649999999878	9.9635564
2026-04-07 15:01:38.934	-0.0980665	-0.0784531999999988	9.85568325
2026-04-07 15:01:39.194	-0.0980665	-0.0784531999999988	9.85568325
2026-04-07 15:01:39.434	-0.0784532	-0.2647795499999988	9.75761675
2026-04-07 15:01:39.696	-0.0784532	-0.2647795499999988	9.75761675
2026-04-07 15:01:39.934	-0.24516625	0.07845320000000121	9.87529655
2026-04-07 15:01:40.193	-0.24516625	0.07845320000000121	9.87529655
2026-04-07 15:01:40.435	-0.16671305	-0.37265269999999884	9.85568325
2026-04-07 15:01:40.693	-0.16671305	-0.37265269999999884	9.85568325
2026-04-07 15:01:40.936	-0.1372931	-0.21574629999999878	9.8654899
2026-04-07 15:01:41.193	-0.1372931	-0.21574629999999878	9.8654899
2026-04-07 15:01:41.435	-0.1765197	-0.20593964999999878	9.81645665
2026-04-07 15:01:41.694	-0.1765197	-0.20593964999999878	9.81645665
2026-04-07 15:01:41.933	-0.196133	-0.1274864499999988	9.8458766
2026-04-07 15:01:42.194	-0.196133	-0.1274864499999988	9.8458766
2026-04-07 15:01:42.433	-0.22555295	-0.1078731499999988	9.83606995
2026-04-07 15:01:42.694	-0.22555295	-0.1078731499999988	9.83606995
2026-04-07 15:01:42.932	-0.2353596	-0.0980664999999988	9.81645665
2026-04-07 15:01:43.195	-0.2353596	-0.0980664999999988	9.81645665
2026-04-07 15:01:43.435	-0.2549729	-0.1569063999999988	9.85568325
2026-04-07 15:01:43.699	-0.2549729	-0.1569063999999988	9.85568325
2026-04-07 15:01:43.933	-0.20593965	-0.17651969999999878	9.8262633
2026-04-07 15:01:44.197	-0.20593965	-0.17651969999999878	9.8262633
2026-04-07 15:01:44.437	-0.22555295	-0.03922659999999879	9.8458766
2026-04-07 15:01:44.694	-0.22555295	-0.03922659999999879	9.8458766
2026-04-07 15:01:44.937	-0.1765197	0.009806650000001206	9.8458766
2026-04-07 15:01:45.194	-0.1765197	0.009806650000001206	9.8458766
2026-04-07 15:01:45.437	-0.1569064	-0.029419949999998793	9.83606995
2026-04-07 15:01:45.700	-0.1569064	-0.029419949999998793	9.83606995
2026-04-07 15:01:45.938	-0.14709975	-0.0784531999999988	9.80665
2026-04-07 15:01:46.196	-0.14709975	-0.0784531999999988	9.80665
2026-04-07 15:01:46.437	-0.16671305	-0.019613299999998793	9.8458766
2026-04-07 15:01:46.698	-0.16671305	-0.019613299999998793	9.8458766
2026-04-07 15:01:46.934	-0.1569064	-0.0686465499999988	9.8458766
2026-04-07 15:01:47.197	-0.1569064	-0.0686465499999988	9.8458766
2026-04-07 15:01:47.437	-0.16671305	-0.019613299999998793	9.8458766
2026-04-07 15:01:47.693	-0.16671305	-0.019613299999998793	9.8458766
2026-04-07 15:01:47.939	-0.1372931	-0.0490332499999988	9.8262633
2026-04-07 15:01:48.198	-0.1372931	-0.0490332499999988	9.8262633
2026-04-07 15:01:48.434	-0.1569064	-0.0784531999999988	9.8262633
2026-04-07 15:01:48.693	-0.1569064	-0.0784531999999988	9.8262633
2026-04-07 15:01:48.934	-0.14709975	-0.0686465499999988	9.8458766
2026-04-07 15:01:49.195	-0.14709975	-0.0686465499999988	9.8458766
2026-04-07 15:01:49.434	-0.196133	0.1274864500000012	9.8851032
2026-04-07 15:01:49.693	-0.196133	0.1274864500000012	9.8851032
2026-04-07 15:01:49.939	-0.1569064	-0.2157462999999988	9.80665
2026-04-07 15:01:50.194	-0.1569064	-0.2157462999999988	9.80665
2026-04-07 15:01:50.434	-0.1569064	0.009806650000001202	9.81645665
2026-04-07 15:01:50.694	-0.1569064	0.009806650000001202	9.81645665
2026-04-07 15:01:50.935	-0.7453054	-0.20593964999999878	9.87529655
2026-04-07 15:01:51.195	-0.7453054	-0.20593964999999878	9.87529655
2026-04-07 15:01:51.438	0.0392266	-0.25497289999999884	9.7085835
2026-04-07 15:01:51.693	0.0392266	-0.25497289999999884	9.7085835
2026-04-07 15:01:51.937	-0.24516625	0.19613300000000122	9.9243298
2026-04-07 15:01:52.194	-0.24516625	0.19613300000000122	9.9243298
2026-04-07 15:01:52.435	-0.0784532	-0.35303939999999884	9.7870367
2026-04-07 15:01:52.692	-0.0784532	-0.35303939999999884	9.7870367
2026-04-07 15:01:52.935	-0.196133	0.2941995000000012	9.8851032
2026-04-07 15:01:53.193	-0.196133	0.2941995000000012	9.8851032
2026-04-07 15:01:53.437	-0.14709975	-0.2255529499999988	9.77723005
2026-04-07 15:01:53.700	-0.14709975	-0.2255529499999988	9.77723005
2026-04-07 15:01:53.935	-0.2549729	0.0588399000000012	9.79684335
2026-04-07 15:01:54.192	-0.2549729	0.0588399000000012	9.79684335
2026-04-07 15:01:54.438	-0.16671305	-0.2843928499999988	9.8458766
2026-04-07 15:01:54.694	-0.16671305	-0.2843928499999988	9.8458766
2026-04-07 15:01:54.938	-0.20593965	-0.1176797999999988	9.85568325
2026-04-07 15:01:55.193	-0.20593965	-0.1176797999999988	9.85568325
2026-04-07 15:01:55.435	-0.8041453000000001	-0.05883989999999878	9.95374975
2026-04-07 15:01:55.693	-0.8041453000000001	-0.05883989999999878	9.95374975
2026-04-07 15:01:55.934	-0.30400615	-0.1765196999999988	9.80665
2026-04-07 15:01:56.194	-0.30400615	-0.1765196999999988	9.80665
2026-04-07 15:01:56.437	-0.2353596	-0.07845319999999881	9.75761675
2026-04-07 15:01:56.693	-0.2353596	-0.07845319999999881	9.75761675
2026-04-07 15:01:56.935	0.0784532	0.029419950000001208	9.83606995
2026-04-07 15:01:57.193	0.0784532	0.029419950000001208	9.83606995
2026-04-07 15:01:57.433	-0.18632635	-0.029419949999998786	9.9047165
2026-04-07 15:01:57.692	-0.18632635	-0.029419949999998786	9.9047165
2026-04-07 15:01:57.936	-0.0392266	0.08825985000000121	9.8458766
2026-04-07 15:01:58.194	-0.0392266	0.08825985000000121	9.8458766
2026-04-07 15:01:58.433	-0.18632635	-0.2451662499999988	9.80665
2026-04-07 15:01:58.694	-0.18632635	-0.2451662499999988	9.80665
2026-04-07 15:01:58.934	-0.08825985	0.09806650000000121	9.81645665
2026-04-07 15:01:59.194	-0.08825985	0.09806650000000121	9.81645665
2026-04-07 15:01:59.437	-0.2353596	-0.3628460499999988	9.8458766
2026-04-07 15:01:59.698	-0.2353596	-0.3628460499999988	9.8458766
2026-04-07 15:01:59.939	-0.1176798	-0.0588398999999988	9.79684335
2026-04-07 15:02:00.195	-0.1176798	-0.0588398999999988	9.79684335
2026-04-07 15:02:00.440	-0.20593965	-0.43149259999999884	9.89490985
2026-04-07 15:02:00.699	-0.20593965	-0.43149259999999884	9.89490985
2026-04-07 15:02:00.937	-0.04903325	0.16671305000000122	9.81645665
2026-04-07 15:02:01.196	-0.04903325	0.16671305000000122	9.81645665
2026-04-07 15:02:01.434	-0.14709975	-0.22555294999999878	9.83606995
2026-04-07 15:02:01.694	-0.14709975	-0.22555294999999878	9.83606995
2026-04-07 15:02:01.938	-0.1176798	0.08825985000000121	9.81645665
2026-04-07 15:02:02.194	-0.1176798	0.08825985000000121	9.81645665
2026-04-07 15:02:02.434	-0.1569064	-0.0882598499999988	9.81645665
2026-04-07 15:02:02.693	-0.1569064	-0.0882598499999988	9.81645665
2026-04-07 15:02:02.935	-0.1176798	-0.03922659999999879	9.8458766
2026-04-07 15:02:03.194	-0.1176798	-0.03922659999999879	9.8458766
2026-04-07 15:02:03.434	-0.2549729	0.19613300000000122	9.8654899
2026-04-07 15:02:03.697	-0.2549729	0.19613300000000122	9.8654899
2026-04-07 15:02:03.938	-0.10787315	-0.2647795499999988	9.79684335
2026-04-07 15:02:04.194	-0.10787315	-0.2647795499999988	9.79684335
2026-04-07 15:02:04.438	-0.2745862	-0.0588398999999988	9.7870367
2026-04-07 15:02:04.694	-0.2745862	-0.0588398999999988	9.7870367
2026-04-07 15:02:04.939	-0.16671305	-0.1274864499999988	9.8262633
2026-04-07 15:02:05.195	-0.16671305	-0.1274864499999988	9.8262633
2026-04-07 15:02:05.434	-0.08825985	-0.0980664999999988	9.80665
2026-04-07 15:02:05.695	-0.08825985	-0.0980664999999988	9.80665
2026-04-07 15:02:05.935	-0.14709975	-0.029419949999998793	9.8458766
2026-04-07 15:02:06.195	-0.14709975	-0.029419949999998793	9.8458766
2026-04-07 15:02:06.437	-0.1765197	-0.09806649999999878	9.91452315
2026-04-07 15:02:06.694	-0.1765197	-0.09806649999999878	9.91452315
2026-04-07 15:02:06.938	-0.10787315	-0.0784531999999988	9.8262633
2026-04-07 15:02:07.195	-0.10787315	-0.0784531999999988	9.8262633
2026-04-07 15:02:07.434	-0.1569064	-0.1274864499999988	9.80665
2026-04-07 15:02:07.694	-0.1569064	-0.1274864499999988	9.80665
2026-04-07 15:02:07.939	-0.12748645	-0.0686465499999988	9.79684335
2026-04-07 15:02:08.197	-0.12748645	-0.0686465499999988	9.79684335
2026-04-07 15:02:08.438	-0.14709975	-0.0980664999999988	9.83606995
2026-04-07 15:02:08.695	-0.14709975	-0.0980664999999988	9.83606995
2026-04-07 15:02:08.935	-0.1372931	-0.05883989999999879	9.87529655
2026-04-07 15:02:09.195	-0.1372931	-0.05883989999999879	9.87529655
2026-04-07 15:02:09.434	-0.1372931	-0.0784531999999988	9.83606995
2026-04-07 15:02:09.695	-0.1372931	-0.0784531999999988	9.83606995
2026-04-07 15:02:09.935	-0.20593965	-0.05883989999999879	9.85568325
2026-04-07 15:02:10.195	-0.20593965	-0.05883989999999879	9.85568325
2026-04-07 15:02:10.433	-0.0784532	-0.0882598499999988	9.7870367
2026-04-07 15:02:10.695	-0.0784532	-0.0882598499999988	9.7870367
2026-04-07 15:02:10.937	-0.28439285000000003	-0.029419949999998786	9.9047165
2026-04-07 15:02:11.194	-0.28439285000000003	-0.029419949999998786	9.9047165
2026-04-07 15:02:11.434	-0.0588399	-0.1961329999999988	9.77723005
2026-04-07 15:02:11.695	-0.0588399	-0.1961329999999988	9.77723005
2026-04-07 15:02:11.933	-0.2353596	-0.03922659999999879	9.83606995
2026-04-07 15:02:12.195	-0.2353596	-0.03922659999999879	9.83606995
2026-04-07 15:02:12.435	-0.16671305	-0.1569063999999988	9.80665
2026-04-07 15:02:12.694	-0.16671305	-0.1569063999999988	9.80665
2026-04-07 15:02:12.938	-0.12748645	1.2081740628055542e-15	9.8654899
2026-04-07 15:02:13.195	-0.12748645	1.2081740628055542e-15	9.8654899
2026-04-07 15:02:13.434	-0.1765197	-0.0980664999999988	9.8262633
2026-04-07 15:02:13.695	-0.1765197	-0.0980664999999988	9.8262633
2026-04-07 15:02:13.938	-0.12748645	-0.0686465499999988	9.7870367
2026-04-07 15:02:14.195	-0.12748645	-0.0686465499999988	9.7870367
2026-04-07 15:02:14.436	-0.1569064	-0.03922659999999879	9.8458766
2026-04-07 15:02:14.694	-0.1569064	-0.03922659999999879	9.8458766
2026-04-07 15:02:14.939	-0.1372931	-0.1078731499999988	9.8458766
2026-04-07 15:02:15.194	-0.1372931	-0.1078731499999988	9.8458766
2026-04-07 15:02:15.434	-0.196133	-0.019613299999998793	9.8458766
2026-04-07 15:02:15.695	-0.196133	-0.019613299999998793	9.8458766
2026-04-07 15:02:15.938	-0.1176798	-0.0490332499999988	9.7870367
2026-04-07 15:02:16.194	-0.1176798	-0.0490332499999988	9.7870367
2026-04-07 15:02:16.437	-0.14709975	-0.0784531999999988	9.85568325
2026-04-07 15:02:16.695	-0.14709975	-0.0784531999999988	9.85568325
2026-04-07 15:02:16.935	-0.1372931	-0.0490332499999988	9.8458766
2026-04-07 15:02:17.195	-0.1372931	-0.0490332499999988	9.8458766
2026-04-07 15:02:17.434	-0.196133	0.029419950000001208	9.85568325
2026-04-07 15:02:17.694	-0.196133	0.029419950000001208	9.85568325
2026-04-07 15:02:17.935	-0.12748645	-0.0588398999999988	9.81645665
2026-04-07 15:02:18.196	-0.12748645	-0.0588398999999988	9.81645665
2026-04-07 15:02:18.439	-0.1569064	-0.0490332499999988	9.8458766
2026-04-07 15:02:18.694	-0.1569064	-0.0490332499999988	9.8458766
2026-04-07 15:02:18.935	-0.14709975	-0.029419949999998793	9.85568325
2026-04-07 15:02:19.194	-0.14709975	-0.029419949999998793	9.85568325
2026-04-07 15:02:19.435	-0.1569064	-0.0882598499999988	9.8458766
2026-04-07 15:02:19.695	-0.1569064	-0.0882598499999988	9.8458766
2026-04-07 15:02:19.934	-0.16671305	-0.019613299999998796	9.83606995
2026-04-07 15:02:20.197	-0.16671305	-0.019613299999998796	9.83606995
2026-04-07 15:02:20.434	-0.14709975	-0.0686465499999988	9.81645665
2026-04-07 15:02:20.694	-0.14709975	-0.0686465499999988	9.81645665
2026-04-07 15:02:20.938	-0.14709975	-0.03922659999999879	9.85568325
2026-04-07 15:02:21.194	-0.14709975	-0.03922659999999879	9.85568325
2026-04-07 15:02:21.440	-0.1372931	-0.0784531999999988	9.83606995
2026-04-07 15:02:21.694	-0.1372931	-0.0784531999999988	9.83606995
2026-04-07 15:02:21.935	-0.1765197	-0.0686465499999988	9.8458766
2026-04-07 15:02:22.195	-0.1765197	-0.0686465499999988	9.8458766
2026-04-07 15:02:22.435	-0.14709975	-0.0784531999999988	9.8262633
2026-04-07 15:02:22.693	-0.14709975	-0.0784531999999988	9.8262633
2026-04-07 15:02:22.936	-0.16671305	-0.0588398999999988	9.83606995
2026-04-07 15:02:23.194	-0.16671305	-0.0588398999999988	9.83606995
2026-04-07 15:02:23.439	-0.14709975	-0.0686465499999988	9.83606995
2026-04-07 15:02:23.694	-0.14709975	-0.0686465499999988	9.83606995
2026-04-07 15:02:23.940	-0.14709975	-0.0392265999999988	9.81645665
2026-04-07 15:02:24.194	-0.14709975	-0.0392265999999988	9.81645665
2026-04-07 15:02:24.440	-0.14709975	-0.0686465499999988	9.8262633
2026-04-07 15:02:24.695	-0.14709975	-0.0686465499999988	9.8262633
2026-04-07 15:02:24.935	-0.14709975	-0.0882598499999988	9.81645665
2026-04-07 15:02:25.194	-0.14709975	-0.0882598499999988	9.81645665
2026-04-07 15:02:25.438	-0.1569064	-0.0686465499999988	9.8458766
2026-04-07 15:02:25.694	-0.1569064	-0.0686465499999988	9.8458766
2026-04-07 15:02:25.935	-0.1569064	-0.0686465499999988	9.83606995
2026-04-07 15:02:26.195	-0.1569064	-0.0686465499999988	9.83606995
2026-04-07 15:02:26.434	-0.14709975	-0.0294199499999988	9.81645665
2026-04-07 15:02:26.695	-0.14709975	-0.0294199499999988	9.81645665
2026-04-07 15:02:26.939	-0.12748645	-0.0882598499999988	9.8262633
2026-04-07 15:02:27.194	-0.12748645	-0.0882598499999988	9.8262633
2026-04-07 15:02:27.435	-0.1569064	-0.0686465499999988	9.8458766
2026-04-07 15:02:27.694	-0.1569064	-0.0686465499999988	9.8458766
2026-04-07 15:02:27.935	-0.1569064	-0.0882598499999988	9.85568325
2026-04-07 15:02:28.196	-0.1569064	-0.0882598499999988	9.85568325
2026-04-07 15:02:28.439	-0.1569064	-0.0588398999999988	9.83606995
2026-04-07 15:02:28.695	-0.1569064	-0.0588398999999988	9.83606995
2026-04-07 15:02:28.935	-0.1569064	-0.0490332499999988	9.8262633
2026-04-07 15:02:29.195	-0.1569064	-0.0490332499999988	9.8262633
2026-04-07 15:02:29.435	-0.14709975	-0.0686465499999988	9.8262633
2026-04-07 15:02:29.695	-0.14709975	-0.0686465499999988	9.8262633
2026-04-07 15:02:29.936	-0.14709975	-0.04903324999999879	9.85568325
2026-04-07 15:02:30.197	-0.14709975	-0.04903324999999879	9.85568325
2026-04-07 15:02:30.435	-0.14709975	-0.0784531999999988	9.83606995
2026-04-07 15:02:30.695	-0.14709975	-0.0784531999999988	9.83606995
2026-04-07 15:02:30.936	-0.1569064	-0.0882598499999988	9.83606995
2026-04-07 15:02:31.195	-0.1569064	-0.0882598499999988	9.83606995
2026-04-07 15:02:31.438	-0.16671305	-0.0588398999999988	9.83606995
2026-04-07 15:02:31.695	-0.16671305	-0.0588398999999988	9.83606995
2026-04-07 15:02:31.940	-0.1569064	-0.0784531999999988	9.83606995
2026-04-07 15:02:32.195	-0.1569064	-0.0784531999999988	9.83606995
2026-04-07 15:02:32.434	-0.1569064	-0.03922659999999879	9.83606995
2026-04-07 15:02:32.694	-0.1569064	-0.03922659999999879	9.83606995
2026-04-07 15:02:32.939	-0.1372931	-0.0686465499999988	9.8262633
2026-04-07 15:02:33.193	-0.1372931	-0.0686465499999988	9.8262633
2026-04-07 15:02:33.435	-0.14709975	-0.0784531999999988	9.8262633
2026-04-07 15:02:33.695	-0.14709975	-0.0784531999999988	9.8262633
2026-04-07 15:02:33.939	-0.1372931	-0.0588398999999988	9.83606995
2026-04-07 15:02:34.195	-0.1372931	-0.0588398999999988	9.83606995
2026-04-07 15:02:34.434	-0.16671305	-0.0980664999999988	9.8458766
2026-04-07 15:02:34.695	-0.16671305	-0.0980664999999988	9.8458766
2026-04-07 15:02:34.934	-0.16671305	-0.0588398999999988	9.83606995
2026-04-07 15:02:35.195	-0.16671305	-0.0588398999999988	9.83606995
2026-04-07 15:02:35.435	-0.4118793	-0.08825984999999882	9.69877685
2026-04-07 15:02:35.694	-0.4118793	-0.08825984999999882	9.69877685
2026-04-07 15:02:35.934	-0.69627215	1.2081740628055542e-15	9.8654899
2026-04-07 15:02:36.195	-0.69627215	1.2081740628055542e-15	9.8654899
2026-04-07 15:02:36.439	-0.16671305	-0.0490332499999988	9.8458766
2026-04-07 15:02:36.697	-0.16671305	-0.0490332499999988	9.8458766
2026-04-07 15:02:36.938	-0.36284605000000003	-0.04903324999999879	9.87529655
2026-04-07 15:02:37.194	-0.36284605000000003	-0.04903324999999879	9.87529655
2026-04-07 15:02:37.438	0.2549729	-0.058839899999998814	9.69877685
2026-04-07 15:02:37.693	0.2549729	-0.058839899999998814	9.69877685
2026-04-07 15:02:37.936	-0.16671305	-0.04903324999999879	9.85568325
2026-04-07 15:02:38.198	-0.16671305	-0.04903324999999879	9.85568325
2026-04-07 15:02:38.435	0.00980665	-0.0588398999999988	9.8262633
2026-04-07 15:02:38.698	0.00980665	-0.0588398999999988	9.8262633
2026-04-07 15:02:38.936	-0.14709975	-0.05883989999999879	9.8851032
2026-04-07 15:02:39.194	-0.14709975	-0.05883989999999879	9.8851032
2026-04-07 15:02:39.437	-0.0588399	-0.0686465499999988	9.81645665
2026-04-07 15:02:39.694	-0.0588399	-0.0686465499999988	9.81645665
2026-04-07 15:02:39.935	-0.1569064	-0.1078731499999988	9.83606995
2026-04-07 15:02:40.195	-0.1569064	-0.1078731499999988	9.83606995
2026-04-07 15:02:40.440	-0.08825985	-0.0588398999999988	9.81645665
2026-04-07 15:02:40.697	-0.08825985	-0.0588398999999988	9.81645665
2026-04-07 15:02:40.941	-0.16671305	-0.03922659999999879	9.8458766
2026-04-07 15:02:41.200	-0.16671305	-0.03922659999999879	9.8458766
2026-04-07 15:02:41.434	-0.08825985	-0.0686465499999988	9.79684335
2026-04-07 15:02:41.694	-0.08825985	-0.0686465499999988	9.79684335
2026-04-07 15:02:41.936	-0.1569064	-0.0490332499999988	9.8458766
2026-04-07 15:02:42.198	-0.1569064	-0.0490332499999988	9.8458766
2026-04-07 15:02:42.435	-0.0980665	-0.0882598499999988	9.8262633
2026-04-07 15:02:42.693	-0.0980665	-0.0882598499999988	9.8262633
2026-04-07 15:02:42.939	-0.1765197	-0.05883989999999879	9.8654899
2026-04-07 15:02:43.194	-0.1765197	-0.05883989999999879	9.8654899
2026-04-07 15:02:43.437	-0.10787315	-0.0588398999999988	9.81645665
2026-04-07 15:02:43.695	-0.10787315	-0.0588398999999988	9.81645665
2026-04-07 15:02:43.937	-0.14709975	-0.0588398999999988	9.8262633
2026-04-07 15:02:44.195	-0.14709975	-0.0588398999999988	9.8262633
2026-04-07 15:02:44.436	-0.1176798	-0.0588398999999988	9.83606995
2026-04-07 15:02:44.695	-0.1176798	-0.0588398999999988	9.83606995
2026-04-07 15:02:44.935	-0.16671305	-0.1078731499999988	9.85568325
2026-04-07 15:02:45.196	-0.16671305	-0.1078731499999988	9.85568325
2026-04-07 15:02:45.440	-0.1372931	-0.03922659999999879	9.83606995
2026-04-07 15:02:45.694	-0.1372931	-0.03922659999999879	9.83606995
2026-04-07 15:02:45.935	-0.14709975	-0.0490332499999988	9.8262633
2026-04-07 15:02:46.195	-0.14709975	-0.0490332499999988	9.8262633
2026-04-07 15:02:46.437	-0.12748645	-0.0686465499999988	9.81645665
2026-04-07 15:02:46.695	-0.12748645	-0.0686465499999988	9.81645665
2026-04-07 15:02:46.936	-0.14709975	-0.0686465499999988	9.8458766
2026-04-07 15:02:47.195	-0.14709975	-0.0686465499999988	9.8458766
2026-04-07 15:02:47.436	-0.1372931	-0.0784531999999988	9.83606995
2026-04-07 15:02:47.694	-0.1372931	-0.0784531999999988	9.83606995
2026-04-07 15:02:47.937	-0.1765197	-0.0686465499999988	9.85568325
2026-04-07 15:02:48.195	-0.1765197	-0.0686465499999988	9.85568325
2026-04-07 15:02:48.435	-0.1372931	-0.0294199499999988	9.81645665
2026-04-07 15:02:48.700	-0.1372931	-0.0294199499999988	9.81645665
2026-04-07 15:02:48.940	-0.14709975	-0.0686465499999988	9.81645665
2026-04-07 15:02:49.195	-0.14709975	-0.0686465499999988	9.81645665
2026-04-07 15:02:49.434	-0.12748645	-0.0784531999999988	9.83606995
2026-04-07 15:02:49.695	-0.12748645	-0.0784531999999988	9.83606995
2026-04-07 15:02:49.941	-0.14709975	-0.0686465499999988	9.8654899
2026-04-07 15:02:50.206	-0.14709975	-0.0686465499999988	9.8654899
2026-04-07 15:02:50.439	-0.14709975	-0.0784531999999988	9.83606995
2026-04-07 15:02:50.695	-0.14709975	-0.0784531999999988	9.83606995
2026-04-07 15:02:50.940	-0.1569064	-0.0686465499999988	9.80665
2026-04-07 15:02:51.196	-0.1569064	-0.0686465499999988	9.80665
2026-04-07 15:02:51.437	-0.16671305	-0.0784531999999988	9.8262633
2026-04-07 15:02:51.695	-0.16671305	-0.0784531999999988	9.8262633
2026-04-07 15:02:51.936	-0.1372931	-0.0490332499999988	9.83606995
2026-04-07 15:02:52.195	-0.1372931	-0.0490332499999988	9.83606995
2026-04-07 15:02:52.436	-0.1569064	-0.0588398999999988	9.83606995
2026-04-07 15:02:52.695	-0.1569064	-0.0588398999999988	9.83606995
2026-04-07 15:02:52.934	-0.12748645	-0.0980664999999988	9.80665
2026-04-07 15:02:53.196	-0.12748645	-0.0980664999999988	9.80665
2026-04-07 15:02:53.437	-0.18632635	-0.0882598499999988	9.8458766
2026-04-07 15:02:53.696	-0.18632635	-0.0882598499999988	9.8458766
2026-04-07 15:02:53.939	-0.14709975	-0.03922659999999879	9.83606995
2026-04-07 15:02:54.199	-0.14709975	-0.03922659999999879	9.83606995
2026-04-07 15:02:54.439	-0.1569064	-0.0882598499999988	9.8458766
2026-04-07 15:02:54.696	-0.1569064	-0.0882598499999988	9.8458766
2026-04-07 15:02:54.939	-0.1372931	-0.0784531999999988	9.83606995
2026-04-07 15:02:55.195	-0.1372931	-0.0784531999999988	9.83606995
2026-04-07 15:02:55.435	-0.1765197	-0.0686465499999988	9.8458766
2026-04-07 15:02:55.696	-0.1765197	-0.0686465499999988	9.8458766
2026-04-07 15:02:55.940	-0.14709975	-0.0686465499999988	9.81645665
2026-04-07 15:02:56.194	-0.14709975	-0.0686465499999988	9.81645665
2026-04-07 15:02:56.440	-0.14709975	-0.0490332499999988	9.8262633
2026-04-07 15:02:56.700	-0.14709975	-0.0490332499999988	9.8262633
2026-04-07 15:02:56.937	-0.14709975	-0.0882598499999988	9.8458766
2026-04-07 15:02:57.194	-0.14709975	-0.0882598499999988	9.8458766
2026-04-07 15:02:57.436	-0.1569064	-0.0686465499999988	9.83606995
2026-04-07 15:02:57.695	-0.1569064	-0.0686465499999988	9.83606995
2026-04-07 15:02:57.938	-0.14709975	-0.0588398999999988	9.83606995
2026-04-07 15:02:58.196	-0.14709975	-0.0588398999999988	9.83606995
2026-04-07 15:02:58.435	-0.14709975	-0.0490332499999988	9.83606995
2026-04-07 15:02:58.695	-0.14709975	-0.0490332499999988	9.83606995
2026-04-07 15:02:58.937	-0.14709975	-0.0784531999999988	9.8458766
2026-04-07 15:02:59.195	-0.14709975	-0.0784531999999988	9.8458766
2026-04-07 15:02:59.436	-0.14709975	-0.0686465499999988	9.80665
2026-04-07 15:02:59.695	-0.14709975	-0.0686465499999988	9.80665
2026-04-07 15:02:59.935	-0.1569064	-0.0490332499999988	9.8262633
2026-04-07 15:03:00.195	-0.1569064	-0.0490332499999988	9.8262633
2026-04-07 15:03:00.440	-0.14709975	-0.0490332499999988	9.8262633
2026-04-07 15:03:00.695	-0.14709975	-0.0490332499999988	9.8262633
2026-04-07 15:03:00.941	-0.1372931	-0.0490332499999988	9.8458766
2026-04-07 15:03:01.196	-0.1372931	-0.0490332499999988	9.8458766
2026-04-07 15:03:01.436	-0.14709975	-0.0882598499999988	9.83606995
2026-04-07 15:03:01.695	-0.14709975	-0.0882598499999988	9.83606995
2026-04-07 15:03:01.941	-0.14709975	-0.0784531999999988	9.8458766
2026-04-07 15:03:02.195	-0.14709975	-0.0784531999999988	9.8458766
2026-04-07 15:03:02.437	-0.1569064	-0.0294199499999988	9.8262633
2026-04-07 15:03:02.695	-0.1569064	-0.0294199499999988	9.8262633
2026-04-07 15:03:02.936	-0.1372931	-0.0392265999999988	9.80665
2026-04-07 15:03:03.195	-0.1372931	-0.0392265999999988	9.80665
2026-04-07 15:03:03.440	-0.14709975	-0.0686465499999988	9.8262633
2026-04-07 15:03:03.695	-0.14709975	-0.0686465499999988	9.8262633
2026-04-07 15:03:03.938	-0.14709975	-0.0686465499999988	9.8654899
2026-04-07 15:03:04.195	-0.14709975	-0.0686465499999988	9.8654899
2026-04-07 15:03:04.440	-0.1569064	-0.0686465499999988	9.85568325
2026-04-07 15:03:04.695	-0.1569064	-0.0686465499999988	9.85568325
2026-04-07 15:03:04.936	-0.1569064	-0.0490332499999988	9.81645665
2026-04-07 15:03:05.195	-0.1569064	-0.0490332499999988	9.81645665
2026-04-07 15:03:05.440	-0.14709975	-0.0588398999999988	9.80665
2026-04-07 15:03:05.695	-0.14709975	-0.0588398999999988	9.80665
2026-04-07 15:03:05.937	-0.1372931	-0.0490332499999988	9.83606995
2026-04-07 15:03:06.195	-0.1372931	-0.0490332499999988	9.83606995
2026-04-07 15:03:06.442	-0.1372931	-0.04903324999999879	9.8654899
2026-04-07 15:03:06.695	-0.1372931	-0.04903324999999879	9.8654899
2026-04-07 15:03:06.939	-0.1372931	-0.1176797999999988	9.8262633
2026-04-07 15:03:07.195	-0.1372931	-0.1176797999999988	9.8262633
2026-04-07 15:03:07.436	-0.14709975	-0.0588398999999988	9.83606995
2026-04-07 15:03:07.696	-0.14709975	-0.0588398999999988	9.83606995
2026-04-07 15:03:07.941	-0.1569064	-0.0686465499999988	9.83606995
2026-04-07 15:03:08.195	-0.1569064	-0.0686465499999988	9.83606995
2026-04-07 15:03:08.441	-0.1372931	-0.0490332499999988	9.8262633
2026-04-07 15:03:08.696	-0.1372931	-0.0490332499999988	9.8262633
2026-04-07 15:03:08.940	-0.1372931	-0.0588398999999988	9.83606995
2026-04-07 15:03:09.195	-0.1372931	-0.0588398999999988	9.83606995
2026-04-07 15:03:09.439	-0.12748645	-0.0588398999999988	9.8458766
2026-04-07 15:03:09.696	-0.12748645	-0.0588398999999988	9.8458766
2026-04-07 15:03:09.937	-0.16671305	-0.0882598499999988	9.85568325
2026-04-07 15:03:10.195	-0.16671305	-0.0882598499999988	9.85568325
2026-04-07 15:03:10.439	-0.14709975	-0.0294199499999988	9.81645665
2026-04-07 15:03:10.696	-0.14709975	-0.0294199499999988	9.81645665
2026-04-07 15:03:10.944	-0.1569064	-0.0784531999999988	9.83606995
2026-04-07 15:03:11.195	-0.1569064	-0.0784531999999988	9.83606995
2026-04-07 15:03:11.436	-0.14709975	-0.019613299999998796	9.83606995
2026-04-07 15:03:11.696	-0.14709975	-0.019613299999998796	9.83606995
2026-04-07 15:03:11.938	-0.1372931	-0.0686465499999988	9.83606995
2026-04-07 15:03:12.195	-0.1372931	-0.0686465499999988	9.83606995
2026-04-07 15:03:12.439	-0.14709975	-0.0686465499999988	9.8262633
2026-04-07 15:03:12.695	-0.14709975	-0.0686465499999988	9.8262633
2026-04-07 15:03:12.938	-0.14709975	-0.0784531999999988	9.85568325
2026-04-07 15:03:13.195	-0.14709975	-0.0784531999999988	9.85568325
2026-04-07 15:03:13.438	-0.1765197	-0.04903324999999879	9.85568325
2026-04-07 15:03:13.696	-0.1765197	-0.04903324999999879	9.85568325
2026-04-07 15:03:13.935	-0.1569064	-0.0392265999999988	9.8262633
2026-04-07 15:03:14.200	-0.1569064	-0.0392265999999988	9.8262633
2026-04-07 15:03:14.435	-0.1569064	-0.0686465499999988	9.8262633
2026-04-07 15:03:14.696	-0.1569064	-0.0686465499999988	9.8262633
2026-04-07 15:03:14.937	-0.1372931	-0.0196132999999988	9.81645665
2026-04-07 15:03:15.196	-0.1372931	-0.0196132999999988	9.81645665
2026-04-07 15:03:15.439	-0.1569064	-0.0882598499999988	9.83606995
2026-04-07 15:03:15.696	-0.1569064	-0.0882598499999988	9.83606995
2026-04-07 15:03:15.940	-0.1569064	-0.0882598499999988	9.8458766
2026-04-07 15:03:16.196	-0.1569064	-0.0882598499999988	9.8458766
2026-04-07 15:03:16.437	-0.16671305	-0.0490332499999988	9.8262633
2026-04-07 15:03:16.696	-0.16671305	-0.0490332499999988	9.8262633
2026-04-07 15:03:16.936	-0.16671305	-0.0686465499999988	9.81645665
2026-04-07 15:03:17.196	-0.16671305	-0.0686465499999988	9.81645665
2026-04-07 15:03:17.436	-0.1569064	-0.0294199499999988	9.8262633
2026-04-07 15:03:17.695	-0.1569064	-0.0294199499999988	9.8262633
2026-04-07 15:03:17.936	-0.1372931	-0.0686465499999988	9.8262633
2026-04-07 15:03:18.197	-0.1372931	-0.0686465499999988	9.8262633
2026-04-07 15:03:18.439	-0.14709975	-0.0784531999999988	9.85568325
2026-04-07 15:03:18.696	-0.14709975	-0.0784531999999988	9.85568325
2026-04-07 15:03:18.935	-0.1569064	-0.0784531999999988	9.83606995
2026-04-07 15:03:19.195	-0.1569064	-0.0784531999999988	9.83606995
2026-04-07 15:03:19.438	-0.16671305	-0.029419949999998793	9.83606995
2026-04-07 15:03:19.698	-0.16671305	-0.029419949999998793	9.83606995
2026-04-07 15:03:19.940	-0.14709975	-0.0686465499999988	9.81645665
2026-04-07 15:03:20.196	-0.14709975	-0.0686465499999988	9.81645665
2026-04-07 15:03:20.437	-0.14709975	-0.0490332499999988	9.8458766
2026-04-07 15:03:20.696	-0.14709975	-0.0490332499999988	9.8458766
2026-04-07 15:03:20.937	-0.1569064	-0.0784531999999988	9.83606995
2026-04-07 15:03:21.195	-0.1569064	-0.0784531999999988	9.83606995
2026-04-07 15:03:21.437	-0.14709975	-0.0882598499999988	9.8458766
2026-04-07 15:03:21.698	-0.14709975	-0.0882598499999988	9.8458766
2026-04-07 15:03:21.940	-0.1765197	-0.0490332499999988	9.8262633
2026-04-07 15:03:22.195	-0.1765197	-0.0490332499999988	9.8262633
2026-04-07 15:03:22.436	-0.1372931	-0.0588398999999988	9.81645665
2026-04-07 15:03:22.696	-0.1372931	-0.0588398999999988	9.81645665
2026-04-07 15:03:22.936	-0.16671305	-0.0686465499999988	9.85568325
2026-04-07 15:03:23.195	-0.16671305	-0.0686465499999988	9.85568325
2026-04-07 15:03:23.440	-0.14709975	-0.0882598499999988	9.85568325
2026-04-07 15:03:23.702	-0.14709975	-0.0882598499999988	9.85568325
2026-04-07 15:03:23.936	-0.1765197	-0.0490332499999988	9.8262633
2026-04-07 15:03:24.194	-0.1765197	-0.0490332499999988	9.8262633
2026-04-07 15:03:24.436	-0.1372931	-0.0686465499999988	9.79684335
2026-04-07 15:03:24.701	-0.1372931	-0.0686465499999988	9.79684335
2026-04-07 15:03:24.939	-0.16671305	-0.0588398999999988	9.8262633
2026-04-07 15:03:25.196	-0.16671305	-0.0588398999999988	9.8262633
2026-04-07 15:03:25.439	-0.1372931	-0.0588398999999988	9.8458766
2026-04-07 15:03:25.695	-0.1372931	-0.0588398999999988	9.8458766
2026-04-07 15:03:25.940	-0.16671305	-0.1176797999999988	9.8458766
2026-04-07 15:03:26.196	-0.16671305	-0.1176797999999988	9.8458766
2026-04-07 15:03:26.436	-0.16671305	-0.009806649999998796	9.83606995
2026-04-07 15:03:26.698	-0.16671305	-0.009806649999998796	9.83606995
2026-04-07 15:03:26.941	-0.1372931	-0.0686465499999988	9.81645665
2026-04-07 15:03:27.196	-0.1372931	-0.0686465499999988	9.81645665
2026-04-07 15:03:27.438	-0.14709975	-0.0588398999999988	9.81645665
2026-04-07 15:03:27.695	-0.14709975	-0.0588398999999988	9.81645665
2026-04-07 15:03:27.940	-0.1569064	-0.0980664999999988	9.85568325
2026-04-07 15:03:28.195	-0.1569064	-0.0980664999999988	9.85568325
2026-04-07 15:03:28.437	-0.1765197	-0.03922659999999879	9.83606995
2026-04-07 15:03:28.702	-0.1765197	-0.03922659999999879	9.83606995
2026-04-07 15:03:28.941	-0.12748645	-0.0686465499999988	9.81645665
2026-04-07 15:03:29.195	-0.12748645	-0.0686465499999988	9.81645665
2026-04-07 15:03:29.437	-0.14709975	-0.0490332499999988	9.8262633
2026-04-07 15:03:29.697	-0.14709975	-0.0490332499999988	9.8262633
2026-04-07 15:03:29.937	-0.14709975	-0.0686465499999988	9.83606995
2026-04-07 15:03:30.204	-0.14709975	-0.0686465499999988	9.83606995
2026-04-07 15:03:30.437	-0.1569064	-0.0882598499999988	9.8458766
2026-04-07 15:03:30.696	-0.1569064	-0.0882598499999988	9.8458766
2026-04-07 15:03:30.937	-0.1569064	-0.0490332499999988	9.8458766
2026-04-07 15:03:31.195	-0.1569064	-0.0490332499999988	9.8458766
2026-04-07 15:03:31.437	-0.1569064	-0.0490332499999988	9.8262633
2026-04-07 15:03:31.702	-0.1569064	-0.0490332499999988	9.8262633
2026-04-07 15:03:31.940	-0.1372931	-0.0686465499999988	9.85568325
2026-04-07 15:03:32.200	-0.1372931	-0.0686465499999988	9.85568325
2026-04-07 15:03:32.436	-0.1765197	-0.0882598499999988	9.8458766
2026-04-07 15:03:32.695	-0.1765197	-0.0882598499999988	9.8458766
2026-04-07 15:03:32.941	-0.1372931	-0.0196132999999988	9.81645665
2026-04-07 15:03:33.198	-0.1372931	-0.0196132999999988	9.81645665
2026-04-07 15:03:33.436	-0.1569064	-0.0784531999999988	9.8262633
2026-04-07 15:03:33.703	-0.1569064	-0.0784531999999988	9.8262633
2026-04-07 15:03:33.937	-0.1372931	-0.0490332499999988	9.83606995
2026-04-07 15:03:34.204	-0.1372931	-0.0490332499999988	9.83606995
2026-04-07 15:03:34.436	-0.14709975	-0.0686465499999988	9.8262633
2026-04-07 15:03:34.699	-0.14709975	-0.0686465499999988	9.8262633
2026-04-07 15:03:34.937	-0.1765197	-0.0686465499999988	9.8262633
2026-04-07 15:03:35.197	-0.1765197	-0.0686465499999988	9.8262633
2026-04-07 15:03:35.436	-0.14709975	-0.0784531999999988	9.83606995
2026-04-07 15:03:35.696	-0.14709975	-0.0784531999999988	9.83606995
2026-04-07 15:03:35.937	-0.1569064	-0.029419949999998793	9.85568325
2026-04-07 15:03:36.197	-0.1569064	-0.029419949999998793	9.85568325
2026-04-07 15:03:36.438	-0.14709975	-0.0882598499999988	9.8458766
2026-04-07 15:03:36.697	-0.14709975	-0.0882598499999988	9.8458766
2026-04-07 15:03:36.941	-0.16671305	-0.0588398999999988	9.8262633
2026-04-07 15:03:37.199	-0.16671305	-0.0588398999999988	9.8262633
2026-04-07 15:03:37.439	-0.14709975	-0.0392265999999988	9.80665
2026-04-07 15:03:37.695	-0.14709975	-0.0392265999999988	9.80665
2026-04-07 15:03:37.941	-0.14709975	-0.0784531999999988	9.85568325
2026-04-07 15:03:38.195	-0.14709975	-0.0784531999999988	9.85568325
2026-04-07 15:03:38.440	-0.1569064	-0.05883989999999879	9.85568325
2026-04-07 15:03:38.696	-0.1569064	-0.05883989999999879	9.85568325
2026-04-07 15:03:38.941	-0.16671305	-0.0686465499999988	9.8262633
2026-04-07 15:03:39.200	-0.16671305	-0.0686465499999988	9.8262633
2026-04-07 15:03:39.436	-0.1569064	-0.0392265999999988	9.80665
2026-04-07 15:03:39.697	-0.1569064	-0.0392265999999988	9.80665
2026-04-07 15:03:39.937	-0.12748645	-0.0784531999999988	9.8458766
2026-04-07 15:03:40.197	-0.12748645	-0.0784531999999988	9.8458766
2026-04-07 15:03:40.439	-0.18632635	-0.0784531999999988	9.8654899
2026-04-07 15:03:40.701	-0.18632635	-0.0784531999999988	9.8654899
2026-04-07 15:03:40.937	-0.1372931	-0.0392265999999988	9.8262633
2026-04-07 15:03:41.197	-0.1372931	-0.0392265999999988	9.8262633
2026-04-07 15:03:41.435	-0.16671305	-0.0784531999999988	9.81645665
2026-04-07 15:03:41.697	-0.16671305	-0.0784531999999988	9.81645665
2026-04-07 15:03:41.942	-0.1372931	-0.0392265999999988	9.81645665
2026-04-07 15:03:42.196	-0.1372931	-0.0392265999999988	9.81645665
2026-04-07 15:03:42.439	-0.14709975	-0.0980664999999988	9.85568325
2026-04-07 15:03:42.695	-0.14709975	-0.0980664999999988	9.85568325
2026-04-07 15:03:42.936	-0.1569064	-0.03922659999999879	9.8458766
2026-04-07 15:03:43.196	-0.1569064	-0.03922659999999879	9.8458766
2026-04-07 15:03:43.437	-0.14709975	-0.0980664999999988	9.81645665
2026-04-07 15:03:43.699	-0.14709975	-0.0980664999999988	9.81645665
2026-04-07 15:03:43.937	-0.16671305	-0.0784531999999988	9.83606995
2026-04-07 15:03:44.198	-0.16671305	-0.0784531999999988	9.83606995
2026-04-07 15:03:44.436	-0.14709975	1.2057721262989826e-15	9.8458766
2026-04-07 15:03:44.700	-0.14709975	1.2057721262989826e-15	9.8458766
2026-04-07 15:03:44.937	-0.14709975	-0.0980664999999988	9.8262633
2026-04-07 15:03:45.196	-0.14709975	-0.0980664999999988	9.8262633
2026-04-07 15:03:45.437	-0.14709975	-0.0490332499999988	9.8458766
2026-04-07 15:03:45.705	-0.14709975	-0.0490332499999988	9.8458766
2026-04-07 15:03:45.936	-0.14709975	-0.0882598499999988	9.8458766
2026-04-07 15:03:46.204	-0.14709975	-0.0882598499999988	9.8458766
2026-04-07 15:03:46.440	-0.16671305	-0.0588398999999988	9.83606995
2026-04-07 15:03:46.698	-0.16671305	-0.0588398999999988	9.83606995
2026-04-07 15:03:46.939	-0.14709975	-0.0588398999999988	9.80665
2026-04-07 15:03:47.197	-0.14709975	-0.0588398999999988	9.80665
2026-04-07 15:03:47.441	-0.14709975	-0.0686465499999988	9.8458766
2026-04-07 15:03:47.696	-0.14709975	-0.0686465499999988	9.8458766
2026-04-07 15:03:47.939	-0.14709975	-0.0686465499999988	9.85568325
2026-04-07 15:03:48.199	-0.14709975	-0.0686465499999988	9.85568325
2026-04-07 15:03:48.440	-0.16671305	-0.0980664999999988	9.83606995
2026-04-07 15:03:48.698	-0.16671305	-0.0980664999999988	9.83606995
2026-04-07 15:03:48.935	-0.1569064	-0.0392265999999988	9.81645665
2026-04-07 15:03:49.200	-0.1569064	-0.0392265999999988	9.81645665
2026-04-07 15:03:49.442	-0.14709975	-0.0686465499999988	9.81645665
2026-04-07 15:03:49.701	-0.14709975	-0.0686465499999988	9.81645665
2026-04-07 15:03:49.941	-0.1372931	-0.0686465499999988	9.8458766
2026-04-07 15:03:50.196	-0.1372931	-0.0686465499999988	9.8458766
2026-04-07 15:03:50.440	-0.1569064	-0.0686465499999988	9.8654899
2026-04-07 15:03:50.697	-0.1569064	-0.0686465499999988	9.8654899
2026-04-07 15:03:50.937	-0.14709975	-0.0784531999999988	9.83606995
2026-04-07 15:03:51.202	-0.14709975	-0.0784531999999988	9.83606995
2026-04-07 15:03:51.442	-0.16671305	-0.0490332499999988	9.8262633
2026-04-07 15:03:51.699	-0.16671305	-0.0490332499999988	9.8262633
2026-04-07 15:03:51.937	-0.1372931	-0.0588398999999988	9.81645665
2026-04-07 15:03:52.196	-0.1372931	-0.0588398999999988	9.81645665
2026-04-07 15:03:52.437	-0.1569064	-0.0588398999999988	9.83606995
2026-04-07 15:03:52.696	-0.1569064	-0.0588398999999988	9.83606995
2026-04-07 15:03:52.937	-0.14709975	-0.0882598499999988	9.83606995
2026-04-07 15:03:53.196	-0.14709975	-0.0882598499999988	9.83606995
2026-04-07 15:03:53.436	-0.16671305	-0.0588398999999988	9.8458766
2026-04-07 15:03:53.702	-0.16671305	-0.0588398999999988	9.8458766
2026-04-07 15:03:53.940	-0.14709975	-0.0490332499999988	9.8262633
2026-04-07 15:03:54.203	-0.14709975	-0.0490332499999988	9.8262633
2026-04-07 15:03:54.437	-0.1569064	-0.0490332499999988	9.81645665
2026-04-07 15:03:54.696	-0.1569064	-0.0490332499999988	9.81645665
2026-04-07 15:03:54.940	-0.12748645	-0.0588398999999988	9.81645665
2026-04-07 15:03:55.196	-0.12748645	-0.0588398999999988	9.81645665
2026-04-07 15:03:55.437	-0.16671305	-0.0980664999999988	9.8654899
2026-04-07 15:03:55.697	-0.16671305	-0.0980664999999988	9.8654899
2026-04-07 15:03:55.941	-0.12748645	-0.0490332499999988	9.8458766
2026-04-07 15:03:56.196	-0.12748645	-0.0490332499999988	9.8458766
2026-04-07 15:03:56.436	-0.18632635	-0.0686465499999988	9.8262633
2026-04-07 15:03:56.702	-0.18632635	-0.0686465499999988	9.8262633
2026-04-07 15:03:56.940	-0.10787315	-0.0392265999999988	9.7870367
2026-04-07 15:03:57.198	-0.10787315	-0.0392265999999988	9.7870367
2026-04-07 15:03:57.437	-0.16671305	-0.0882598499999988	9.85568325
2026-04-07 15:03:57.699	-0.16671305	-0.0882598499999988	9.85568325
2026-04-07 15:03:57.938	-0.1372931	-0.0686465499999988	9.8458766
2026-04-07 15:03:58.197	-0.1372931	-0.0686465499999988	9.8458766
2026-04-07 15:03:58.442	-0.16671305	-0.0686465499999988	9.85568325
2026-04-07 15:03:58.700	-0.16671305	-0.0686465499999988	9.85568325
2026-04-07 15:03:58.939	-0.14709975	-0.0980664999999988	9.81645665
2026-04-07 15:03:59.199	-0.14709975	-0.0980664999999988	9.81645665
2026-04-07 15:03:59.437	-0.1569064	-0.019613299999998796	9.83606995
2026-04-07 15:03:59.700	-0.1569064	-0.019613299999998796	9.83606995
2026-04-07 15:03:59.942	-0.1372931	-0.0588398999999988	9.8262633
2026-04-07 15:04:00.196	-0.1372931	-0.0588398999999988	9.8262633
2026-04-07 15:04:00.436	-0.14709975	-0.0588398999999988	9.83606995
2026-04-07 15:04:00.696	-0.14709975	-0.0588398999999988	9.83606995
2026-04-07 15:04:00.941	-0.1569064	-0.0784531999999988	9.8458766
2026-04-07 15:04:01.197	-0.1569064	-0.0784531999999988	9.8458766
2026-04-07 15:04:01.441	-0.14709975	-0.0686465499999988	9.83606995
2026-04-07 15:04:01.700	-0.14709975	-0.0686465499999988	9.83606995
2026-04-07 15:04:01.940	-0.1569064	-0.0490332499999988	9.8458766
2026-04-07 15:04:02.204	-0.1569064	-0.0490332499999988	9.8458766
2026-04-07 15:04:02.437	-0.1372931	-0.0882598499999988	9.83606995
2026-04-07 15:04:02.696	-0.1372931	-0.0882598499999988	9.83606995
2026-04-07 15:04:02.937	-0.1765197	-0.0784531999999988	9.8458766
2026-04-07 15:04:03.200	-0.1765197	-0.0784531999999988	9.8458766
2026-04-07 15:04:03.440	-0.1372931	-0.0490332499999988	9.81645665
2026-04-07 15:04:03.697	-0.1372931	-0.0490332499999988	9.81645665
2026-04-07 15:04:03.942	-0.1569064	-0.0392265999999988	9.80665
2026-04-07 15:04:04.197	-0.1569064	-0.0392265999999988	9.80665
2026-04-07 15:04:04.440	-0.1372931	-0.0784531999999988	9.83606995
2026-04-07 15:04:04.697	-0.1372931	-0.0784531999999988	9.83606995
2026-04-07 15:04:04.941	-0.14709975	-0.0784531999999988	9.85568325
2026-04-07 15:04:05.197	-0.14709975	-0.0784531999999988	9.85568325
2026-04-07 15:04:05.437	-0.16671305	-0.05883989999999879	9.85568325
2026-04-07 15:04:05.700	-0.16671305	-0.05883989999999879	9.85568325
2026-04-07 15:04:05.942	-0.1569064	-0.0882598499999988	9.8262633
2026-04-07 15:04:06.200	-0.1569064	-0.0882598499999988	9.8262633
2026-04-07 15:04:06.437	-0.1569064	-0.0392265999999988	9.8262633
2026-04-07 15:04:06.697	-0.1569064	-0.0392265999999988	9.8262633
2026-04-07 15:04:06.941	-0.12748645	-0.0784531999999988	9.83606995
2026-04-07 15:04:07.199	-0.12748645	-0.0784531999999988	9.83606995
2026-04-07 15:04:07.437	-0.16671305	-0.0882598499999988	9.85568325
2026-04-07 15:04:07.696	-0.16671305	-0.0882598499999988	9.85568325
2026-04-07 15:04:07.940	-0.12748645	-0.0294199499999988	9.81645665
2026-04-07 15:04:08.200	-0.12748645	-0.0294199499999988	9.81645665
2026-04-07 15:04:08.437	-0.1569064	-0.0882598499999988	9.8458766
2026-04-07 15:04:08.699	-0.1569064	-0.0882598499999988	9.8458766
2026-04-07 15:04:08.940	-0.14709975	-0.0784531999999988	9.8262633
2026-04-07 15:04:09.200	-0.14709975	-0.0784531999999988	9.8262633
2026-04-07 15:04:09.436	-0.16671305	-0.029419949999998793	9.83606995
2026-04-07 15:04:09.697	-0.16671305	-0.029419949999998793	9.83606995
2026-04-07 15:04:09.938	-0.14709975	-0.0784531999999988	9.8262633
2026-04-07 15:04:10.196	-0.14709975	-0.0784531999999988	9.8262633
2026-04-07 15:04:10.437	-0.1372931	-0.0882598499999988	9.8458766
2026-04-07 15:04:10.696	-0.1372931	-0.0882598499999988	9.8458766
2026-04-07 15:04:10.938	-0.16671305	-0.0490332499999988	9.8458766
2026-04-07 15:04:11.196	-0.16671305	-0.0490332499999988	9.8458766
2026-04-07 15:04:11.440	-0.14709975	-0.0882598499999988	9.80665
2026-04-07 15:04:11.696	-0.14709975	-0.0882598499999988	9.80665
2026-04-07 15:04:11.940	-0.16671305	-0.0588398999999988	9.8262633
2026-04-07 15:04:12.197	-0.16671305	-0.0588398999999988	9.8262633
2026-04-07 15:04:12.437	-0.14709975	-0.0294199499999988	9.81645665
2026-04-07 15:04:12.695	-0.14709975	-0.0294199499999988	9.81645665
2026-04-07 15:04:12.940	-0.1569064	-0.0784531999999988	9.83606995
2026-04-07 15:04:13.196	-0.1569064	-0.0784531999999988	9.83606995
2026-04-07 15:04:13.438	-0.1372931	-0.0588398999999988	9.8458766
2026-04-07 15:04:13.698	-0.1372931	-0.0588398999999988	9.8458766
2026-04-07 15:04:13.937	-0.14709975	-0.0784531999999988	9.8262633
2026-04-07 15:04:14.196	-0.14709975	-0.0784531999999988	9.8262633
2026-04-07 15:04:14.438	-0.16671305	-0.0882598499999988	9.83606995
2026-04-07 15:04:14.696	-0.16671305	-0.0882598499999988	9.83606995
2026-04-07 15:04:14.941	-0.14709975	-0.0294199499999988	9.8262633
2026-04-07 15:04:15.204	-0.14709975	-0.0294199499999988	9.8262633
2026-04-07 15:04:15.438	-0.16671305	-0.0588398999999988	9.83606995
2026-04-07 15:04:15.700	-0.16671305	-0.0588398999999988	9.83606995
2026-04-07 15:04:15.939	-0.1372931	-0.0882598499999988	9.8458766
2026-04-07 15:04:16.199	-0.1372931	-0.0882598499999988	9.8458766
2026-04-07 15:04:16.438	-0.16671305	-0.0686465499999988	9.83606995
2026-04-07 15:04:16.700	-0.16671305	-0.0686465499999988	9.83606995
2026-04-07 15:04:16.942	-0.1569064	-0.0490332499999988	9.8262633
2026-04-07 15:04:17.197	-0.1569064	-0.0490332499999988	9.8262633
2026-04-07 15:04:17.438	-0.14709975	-0.0588398999999988	9.8262633
2026-04-07 15:04:17.696	-0.14709975	-0.0588398999999988	9.8262633
2026-04-07 15:04:17.941	-0.14709975	-0.0588398999999988	9.8458766
2026-04-07 15:04:18.201	-0.14709975	-0.0588398999999988	9.8458766
2026-04-07 15:04:18.441	-0.1569064	-0.0784531999999988	9.8458766
2026-04-07 15:04:18.696	-0.1569064	-0.0784531999999988	9.8458766
2026-04-07 15:04:18.941	-0.16671305	-0.0588398999999988	9.8458766
2026-04-07 15:04:19.200	-0.16671305	-0.0588398999999988	9.8458766
2026-04-07 15:04:19.441	-0.1372931	-0.0490332499999988	9.80665
2026-04-07 15:04:19.700	-0.1372931	-0.0490332499999988	9.80665
2026-04-07 15:04:19.938	-0.14709975	-0.0686465499999988	9.8458766
2026-04-07 15:04:20.196	-0.14709975	-0.0686465499999988	9.8458766
2026-04-07 15:04:20.436	-0.1372931	-0.0490332499999988	9.83606995
2026-04-07 15:04:20.697	-0.1372931	-0.0490332499999988	9.83606995
2026-04-07 15:04:20.938	-0.14709975	-0.0882598499999988	9.8262633
2026-04-07 15:04:21.197	-0.14709975	-0.0882598499999988	9.8262633
2026-04-07 15:04:21.443	-0.1569064	-0.0882598499999988	9.85568325
2026-04-07 15:04:21.698	-0.1569064	-0.0882598499999988	9.85568325
2026-04-07 15:04:21.939	-0.1569064	-0.0686465499999988	9.8458766
2026-04-07 15:04:22.199	-0.1569064	-0.0686465499999988	9.8458766
2026-04-07 15:04:22.441	-0.16671305	-0.0686465499999988	9.83606995
2026-04-07 15:04:22.696	-0.16671305	-0.0686465499999988	9.83606995
2026-04-07 15:04:22.941	-0.1569064	-0.0490332499999988	9.8262633
2026-04-07 15:04:23.204	-0.1569064	-0.0490332499999988	9.8262633
2026-04-07 15:04:23.444	-0.14709975	-0.0294199499999988	9.80665
2026-04-07 15:04:23.697	-0.14709975	-0.0294199499999988	9.80665
2026-04-07 15:04:23.938	-0.16671305	-0.0686465499999988	9.8262633
2026-04-07 15:04:24.197	-0.16671305	-0.0686465499999988	9.8262633
2026-04-07 15:04:24.437	-0.1372931	-0.0490332499999988	9.81645665
2026-04-07 15:04:24.697	-0.1372931	-0.0490332499999988	9.81645665
2026-04-07 15:04:24.937	-0.1569064	-0.04903324999999879	9.85568325
2026-04-07 15:04:25.203	-0.1569064	-0.04903324999999879	9.85568325
2026-04-07 15:04:25.439	-0.14709975	-0.0784531999999988	9.8262633
2026-04-07 15:04:25.698	-0.14709975	-0.0784531999999988	9.8262633
2026-04-07 15:04:25.936	-0.14709975	-0.0882598499999988	9.83606995
2026-04-07 15:04:26.197	-0.14709975	-0.0882598499999988	9.83606995
2026-04-07 15:04:26.437	-0.16671305	-0.0784531999999988	9.8262633
2026-04-07 15:04:26.697	-0.16671305	-0.0784531999999988	9.8262633
2026-04-07 15:04:26.940	-0.1569064	-0.03922659999999879	9.83606995
2026-04-07 15:04:27.200	-0.1569064	-0.03922659999999879	9.83606995
2026-04-07 15:04:27.437	-0.14709975	-0.0686465499999988	9.8262633
2026-04-07 15:04:27.696	-0.14709975	-0.0686465499999988	9.8262633
2026-04-07 15:04:27.937	-0.1372931	-0.0392265999999988	9.81645665
2026-04-07 15:04:28.197	-0.1372931	-0.0392265999999988	9.81645665
2026-04-07 15:04:28.438	-0.14709975	-0.0980664999999988	9.83606995
2026-04-07 15:04:28.697	-0.14709975	-0.0980664999999988	9.83606995
2026-04-07 15:04:28.940	-0.1765197	-0.0686465499999988	9.85568325
2026-04-07 15:04:29.197	-0.1765197	-0.0686465499999988	9.85568325
2026-04-07 15:04:29.442	-0.1569064	-0.03922659999999879	9.83606995
2026-04-07 15:04:29.699	-0.1569064	-0.03922659999999879	9.83606995
2026-04-07 15:04:29.941	-0.14709975	-0.0490332499999988	9.81645665
2026-04-07 15:04:30.199	-0.14709975	-0.0490332499999988	9.81645665
2026-04-07 15:04:30.437	-0.1372931	-0.0686465499999988	9.80665
2026-04-07 15:04:30.696	-0.1372931	-0.0686465499999988	9.80665
2026-04-07 15:04:30.942	-0.14709975	-0.0882598499999988	9.8458766
2026-04-07 15:04:31.197	-0.14709975	-0.0882598499999988	9.8458766
2026-04-07 15:04:31.437	-0.1765197	-0.0686465499999988	9.8654899
2026-04-07 15:04:31.698	-0.1765197	-0.0686465499999988	9.8654899
2026-04-07 15:04:31.937	-0.14709975	-0.0686465499999988	9.83606995
2026-04-07 15:04:32.197	-0.14709975	-0.0686465499999988	9.83606995
2026-04-07 15:04:32.437	-0.14709975	-0.0294199499999988	9.80665
2026-04-07 15:04:32.696	-0.14709975	-0.0294199499999988	9.80665
2026-04-07 15:04:32.938	-0.12748645	-0.0686465499999988	9.79684335
2026-04-07 15:04:33.196	-0.12748645	-0.0686465499999988	9.79684335
2026-04-07 15:04:33.440	-0.1569064	-0.1078731499999988	9.85568325
2026-04-07 15:04:33.697	-0.1569064	-0.1078731499999988	9.85568325
2026-04-07 15:04:33.941	-0.14709975	-0.0686465499999988	9.8458766
2026-04-07 15:04:34.200	-0.14709975	-0.0686465499999988	9.8458766
2026-04-07 15:04:34.441	-0.18632635	-0.04903324999999879	9.8654899
2026-04-07 15:04:34.697	-0.18632635	-0.04903324999999879	9.8654899
2026-04-07 15:04:34.940	-0.1176798	-0.05883989999999881	9.75761675
2026-04-07 15:04:35.196	-0.1176798	-0.05883989999999881	9.75761675
2026-04-07 15:04:35.441	-0.16671305	-0.0686465499999988	9.8458766
2026-04-07 15:04:35.696	-0.16671305	-0.0686465499999988	9.8458766
2026-04-07 15:04:35.938	-0.12748645	-0.0588398999999988	9.8458766
2026-04-07 15:04:36.200	-0.12748645	-0.0588398999999988	9.8458766
2026-04-07 15:04:36.438	-0.18632635	-0.0784531999999988	9.85568325
2026-04-07 15:04:36.700	-0.18632635	-0.0784531999999988	9.85568325
2026-04-07 15:04:36.937	-0.12748645	-0.0784531999999988	9.81645665
2026-04-07 15:04:37.197	-0.12748645	-0.0784531999999988	9.81645665
2026-04-07 15:04:37.441	-0.1765197	-0.0588398999999988	9.81645665
2026-04-07 15:04:37.699	-0.1765197	-0.0588398999999988	9.81645665
2026-04-07 15:04:37.939	-0.1569064	-0.03922659999999879	9.8458766
2026-04-07 15:04:38.197	-0.1569064	-0.03922659999999879	9.8458766
2026-04-07 15:04:38.444	-0.14709975	-0.0784531999999988	9.8262633
2026-04-07 15:04:38.697	-0.14709975	-0.0784531999999988	9.8262633
2026-04-07 15:04:38.938	-0.1569064	-0.0686465499999988	9.8458766
2026-04-07 15:04:39.198	-0.1569064	-0.0686465499999988	9.8458766
2026-04-07 15:04:39.438	-0.1569064	-0.0686465499999988	9.8262633
2026-04-07 15:04:39.697	-0.1569064	-0.0686465499999988	9.8262633
2026-04-07 15:04:39.940	-0.16671305	-0.0784531999999988	9.81645665
2026-04-07 15:04:40.197	-0.16671305	-0.0784531999999988	9.81645665
2026-04-07 15:04:40.438	-0.1372931	-0.0392265999999988	9.8262633
2026-04-07 15:04:40.696	-0.1372931	-0.0392265999999988	9.8262633
2026-04-07 15:04:40.939	-0.14709975	-0.0588398999999988	9.83606995
2026-04-07 15:04:41.208	-0.14709975	-0.0588398999999988	9.83606995
2026-04-07 15:04:41.437	-0.14709975	-0.0882598499999988	9.8458766
2026-04-07 15:04:41.702	-0.14709975	-0.0882598499999988	9.8458766
2026-04-07 15:04:41.938	-0.16671305	-0.0784531999999988	9.83606995
2026-04-07 15:04:42.201	-0.16671305	-0.0784531999999988	9.83606995
2026-04-07 15:04:42.436	-0.1372931	-0.0490332499999988	9.81645665
2026-04-07 15:04:42.696	-0.1372931	-0.0490332499999988	9.81645665
2026-04-07 15:04:42.938	-0.1569064	-0.0686465499999988	9.8458766
2026-04-07 15:04:43.197	-0.1569064	-0.0686465499999988	9.8458766
2026-04-07 15:04:43.440	-0.1372931	-0.0784531999999988	9.8262633
2026-04-07 15:04:43.698	-0.1372931	-0.0784531999999988	9.8262633
2026-04-07 15:04:43.942	-0.16671305	-0.0588398999999988	9.8458766
2026-04-07 15:04:44.198	-0.16671305	-0.0588398999999988	9.8458766
2026-04-07 15:04:44.443	-0.1569064	-0.0588398999999988	9.8262633
2026-04-07 15:04:44.699	-0.1569064	-0.0588398999999988	9.8262633
2026-04-07 15:04:44.943	-0.1372931	-0.0588398999999988	9.8262633
2026-04-07 15:04:45.203	-0.1372931	-0.0588398999999988	9.8262633
2026-04-07 15:04:45.438	-0.16671305	-0.0784531999999988	9.8654899
2026-04-07 15:04:45.697	-0.16671305	-0.0784531999999988	9.8654899
2026-04-07 15:04:45.942	-0.1569064	-0.0784531999999988	9.8458766
2026-04-07 15:04:46.197	-0.1569064	-0.0784531999999988	9.8458766
2026-04-07 15:04:46.437	-0.1569064	-0.0686465499999988	9.8262633
2026-04-07 15:04:46.698	-0.1569064	-0.0686465499999988	9.8262633
2026-04-07 15:04:46.942	-0.1569064	-0.0490332499999988	9.8262633
2026-04-07 15:04:47.198	-0.1569064	-0.0490332499999988	9.8262633
2026-04-07 15:04:47.438	-0.14709975	-0.0490332499999988	9.8262633
2026-04-07 15:04:47.697	-0.14709975	-0.0490332499999988	9.8262633
2026-04-07 15:04:47.940	-0.1372931	-0.0784531999999988	9.83606995
2026-04-07 15:04:48.200	-0.1372931	-0.0784531999999988	9.83606995
2026-04-07 15:04:48.441	-0.1569064	-0.0686465499999988	9.8262633
2026-04-07 15:04:48.702	-0.1569064	-0.0686465499999988	9.8262633
2026-04-07 15:04:48.937	-0.16671305	-0.0588398999999988	9.8458766
2026-04-07 15:04:49.202	-0.16671305	-0.0588398999999988	9.8458766
2026-04-07 15:04:49.436	-0.1176798	-0.0588398999999988	9.81645665
2026-04-07 15:04:49.698	-0.1176798	-0.0588398999999988	9.81645665
2026-04-07 15:04:49.938	-0.18632635	-0.0882598499999988	9.85568325
2026-04-07 15:04:50.199	-0.18632635	-0.0882598499999988	9.85568325
2026-04-07 15:04:50.438	-0.1372931	-0.0588398999999988	9.8262633
2026-04-07 15:04:50.699	-0.1372931	-0.0588398999999988	9.8262633
2026-04-07 15:04:50.941	-0.16671305	-0.0588398999999988	9.8262633
2026-04-07 15:04:51.205	-0.16671305	-0.0588398999999988	9.8262633
2026-04-07 15:04:51.440	-0.12748645	-0.0490332499999988	9.8262633
2026-04-07 15:04:51.702	-0.12748645	-0.0490332499999988	9.8262633
2026-04-07 15:04:51.940	-0.1569064	-0.0686465499999988	9.85568325
2026-04-07 15:04:52.199	-0.1569064	-0.0686465499999988	9.85568325
2026-04-07 15:04:52.443	-0.1372931	-0.0882598499999988	9.8262633
2026-04-07 15:04:52.696	-0.1372931	-0.0882598499999988	9.8262633
2026-04-07 15:04:52.941	-0.1765197	-0.0490332499999988	9.8458766
2026-04-07 15:04:53.199	-0.1765197	-0.0490332499999988	9.8458766
2026-04-07 15:04:53.437	-0.1176798	-0.0686465499999988	9.8262633
2026-04-07 15:04:53.698	-0.1176798	-0.0686465499999988	9.8262633
2026-04-07 15:04:53.938	-0.16671305	-0.0686465499999988	9.8458766
2026-04-07 15:04:54.197	-0.16671305	-0.0686465499999988	9.8458766
2026-04-07 15:04:54.439	-0.1372931	-0.0882598499999988	9.8262633
2026-04-07 15:04:54.696	-0.1372931	-0.0882598499999988	9.8262633
2026-04-07 15:04:54.938	-0.16671305	-0.0392265999999988	9.80665
2026-04-07 15:04:55.198	-0.16671305	-0.0392265999999988	9.80665
2026-04-07 15:04:55.438	-0.14709975	-0.0490332499999988	9.8458766
2026-04-07 15:04:55.697	-0.14709975	-0.0490332499999988	9.8458766
2026-04-07 15:04:55.938	-0.1372931	-0.0784531999999988	9.8262633
2026-04-07 15:04:56.198	-0.1372931	-0.0784531999999988	9.8262633
2026-04-07 15:04:56.437	-0.18632635	-0.0686465499999988	9.85568325
2026-04-07 15:04:56.698	-0.18632635	-0.0686465499999988	9.85568325
2026-04-07 15:04:56.938	-0.1176798	-0.0686465499999988	9.79684335
2026-04-07 15:04:57.199	-0.1176798	-0.0686465499999988	9.79684335
2026-04-07 15:04:57.438	-0.18632635	-0.04903324999999879	9.85568325
2026-04-07 15:04:57.699	-0.18632635	-0.04903324999999879	9.85568325
2026-04-07 15:04:57.943	-0.10787315	-0.0784531999999988	9.8262633
2026-04-07 15:04:58.196	-0.10787315	-0.0784531999999988	9.8262633
2026-04-07 15:04:58.437	-0.14709975	-0.05883989999999879	9.87529655
2026-04-07 15:04:58.697	-0.14709975	-0.05883989999999879	9.87529655
2026-04-07 15:04:58.938	0.5099458	-0.06864654999999882	9.6693569
2026-04-07 15:04:59.198	0.5099458	-0.06864654999999882	9.6693569
2026-04-07 15:04:59.439	-0.42168595	0.12748645000000122	9.91452315
2026-04-07 15:04:59.699	-0.42168595	0.12748645000000122	9.91452315
2026-04-07 15:04:59.938	-0.18632635	-0.05883989999999881	9.77723005
2026-04-07 15:05:00.197	-0.18632635	-0.05883989999999881	9.77723005
2026-04-07 15:05:00.438	-0.42168595	-0.18632634999999878	9.8654899
2026-04-07 15:05:00.696	-0.42168595	-0.18632634999999878	9.8654899
2026-04-07 15:05:00.939	-0.16671305	-0.1470997499999988	9.65955025
2026-04-07 15:05:01.197	-0.16671305	-0.1470997499999988	9.65955025
2026-04-07 15:05:01.438	-0.3726527	-0.2549728999999988	9.8851032
2026-04-07 15:05:01.697	-0.3726527	-0.2549728999999988	9.8851032
2026-04-07 15:05:01.938	0.0	0.02941995000000121	9.8851032
2026-04-07 15:05:02.198	0.0	0.02941995000000121	9.8851032
2026-04-07 15:05:02.438	0.36284605000000003	-0.029419949999998807	9.75761675
2026-04-07 15:05:02.697	0.36284605000000003	-0.029419949999998807	9.75761675
2026-04-07 15:05:02.938	0.0980665	-0.0490332499999988	9.8262633
2026-04-07 15:05:03.198	0.0980665	-0.0490332499999988	9.8262633
2026-04-07 15:05:03.439	0.04903325	-0.0784531999999988	9.85568325
2026-04-07 15:05:03.698	0.04903325	-0.0784531999999988	9.85568325
2026-04-07 15:05:03.939	-0.57859235	-0.04903324999999877	10.002783
2026-04-07 15:05:04.202	-0.57859235	-0.04903324999999877	10.002783
2026-04-07 15:05:04.443	-0.2157463	-0.0882598499999988	9.77723005
2026-04-07 15:05:04.707	-0.2157463	-0.0882598499999988	9.77723005
2026-04-07 15:05:04.941	-0.2941995	-0.0392265999999988	9.80665
2026-04-07 15:05:05.201	-0.2941995	-0.0392265999999988	9.80665
2026-04-07 15:05:05.443	-0.196133	-0.0784531999999988	9.79684335
2026-04-07 15:05:05.698	-0.196133	-0.0784531999999988	9.79684335
2026-04-07 15:05:05.939	-0.2941995	0.1274864500000012	9.8458766
2026-04-07 15:05:06.198	-0.2941995	0.1274864500000012	9.8458766
2026-04-07 15:05:06.436	-0.20593965	1.2105759993121259e-15	9.8851032
2026-04-07 15:05:06.705	-0.20593965	1.2105759993121259e-15	9.8851032
2026-04-07 15:05:06.939	-0.20593965	-0.029419949999998793	9.8654899
2026-04-07 15:05:07.200	-0.20593965	-0.029419949999998793	9.8654899
2026-04-07 15:05:07.441	-0.2157463	-0.2647795499999988	9.7870367
2026-04-07 15:05:07.696	-0.2157463	-0.2647795499999988	9.7870367
2026-04-07 15:05:07.938	-0.2157463	0.0392266000000012	9.7870367
2026-04-07 15:05:08.201	-0.2157463	0.0392266000000012	9.7870367
2026-04-07 15:05:08.441	-0.12748645	-0.0980664999999988	9.7478101
2026-04-07 15:05:08.697	-0.12748645	-0.0980664999999988	9.7478101
2026-04-07 15:05:08.939	-0.04903325	1.2177818088318409e-15	9.9439431
2026-04-07 15:05:09.204	-0.04903325	1.2177818088318409e-15	9.9439431
2026-04-07 15:05:09.439	-0.0588399	-0.09806649999999878	9.9243298
2026-04-07 15:05:09.699	-0.0588399	-0.09806649999999878	9.9243298
2026-04-07 15:05:09.938	-0.16671305	1.2129779358186976e-15	9.9047165
2026-04-07 15:05:10.199	-0.16671305	1.2129779358186976e-15	9.9047165
2026-04-07 15:05:10.436	-0.08825985	-0.019613299999998803	9.75761675
2026-04-07 15:05:10.699	-0.08825985	-0.019613299999998803	9.75761675
2026-04-07 15:05:10.937	-0.2549729	-0.0784531999999988	9.81645665
2026-04-07 15:05:11.197	-0.2549729	-0.0784531999999988	9.81645665
2026-04-07 15:05:11.436	-0.196133	0.19613300000000122	9.81645665
2026-04-07 15:05:11.698	-0.196133	0.19613300000000122	9.81645665
2026-04-07 15:05:11.937	-0.2157463	-0.1372930999999988	9.8851032
2026-04-07 15:05:12.198	-0.2157463	-0.1372930999999988	9.8851032
2026-04-07 15:05:12.437	-0.08825985	0.0588399000000012	9.79684335
2026-04-07 15:05:12.697	-0.08825985	0.0588399000000012	9.79684335
2026-04-07 15:05:12.937	-0.3138128	-0.39226599999999884	9.79684335
2026-04-07 15:05:13.197	-0.3138128	-0.39226599999999884	9.79684335
2026-04-07 15:05:13.437	-0.06864655	-0.029419949999998803	9.79684335
2026-04-07 15:05:13.697	-0.06864655	-0.029419949999998803	9.79684335
2026-04-07 15:05:13.938	-0.0196133	-0.15690639999999878	9.97336305
2026-04-07 15:05:14.200	-0.0196133	-0.15690639999999878	9.97336305
2026-04-07 15:05:14.438	0.3138128	0.039226600000001194	9.7085835
2026-04-07 15:05:14.697	0.3138128	0.039226600000001194	9.7085835
2026-04-07 15:05:14.937	-0.53936575	-0.15690639999999878	9.9047165
2026-04-07 15:05:15.198	-0.53936575	-0.15690639999999878	9.9047165
2026-04-07 15:05:15.437	-0.00980665	-0.05883989999999881	9.7085835
2026-04-07 15:05:15.698	-0.00980665	-0.05883989999999881	9.7085835
2026-04-07 15:05:15.936	-0.34323275	-0.05883989999999878	9.9439431
2026-04-07 15:05:16.199	-0.34323275	-0.05883989999999878	9.9439431
2026-04-07 15:05:16.436	-0.06864655	-0.0980664999999988	9.7870367
2026-04-07 15:05:16.700	-0.06864655	-0.0980664999999988	9.7870367
2026-04-07 15:05:16.938	-0.2941995	-0.0784531999999988	9.89490985
2026-04-07 15:05:17.198	-0.2941995	-0.0784531999999988	9.89490985
2026-04-07 15:05:17.439	-0.08825985	-0.06864654999999881	9.75761675
2026-04-07 15:05:17.697	-0.08825985	-0.06864654999999881	9.75761675
2026-04-07 15:05:17.938	-0.22555295	-0.04903324999999879	9.87529655
2026-04-07 15:05:18.198	-0.22555295	-0.04903324999999879	9.87529655
2026-04-07 15:05:18.439	-0.1372931	-0.1176797999999988	9.8262633
2026-04-07 15:05:18.699	-0.1372931	-0.1176797999999988	9.8262633
2026-04-07 15:05:18.938	-0.196133	-0.029419949999998793	9.83606995
2026-04-07 15:05:19.198	-0.196133	-0.029419949999998793	9.83606995
2026-04-07 15:05:19.438	-0.1765197	-0.0980664999999988	9.8262633
2026-04-07 15:05:19.699	-0.1765197	-0.0980664999999988	9.8262633
2026-04-07 15:05:19.939	-0.22555295	0.24516625000000122	9.81645665
2026-04-07 15:05:20.199	-0.22555295	0.24516625000000122	9.81645665
2026-04-07 15:05:20.439	-0.1765197	-0.22555294999999878	9.8458766
2026-04-07 15:05:20.699	-0.1765197	-0.22555294999999878	9.8458766
2026-04-07 15:05:20.941	-0.24516625	0.10787315000000121	9.8458766
2026-04-07 15:05:21.202	-0.24516625	0.10787315000000121	9.8458766
2026-04-07 15:05:21.438	-0.2745862	-0.1667130499999988	9.7674234
2026-04-07 15:05:21.699	-0.2745862	-0.1667130499999988	9.7674234
2026-04-07 15:05:21.938	-0.2157463	0.0490332500000012	9.7870367
2026-04-07 15:05:22.198	-0.2157463	0.0490332500000012	9.7870367
2026-04-07 15:05:22.442	-0.2157463	0.0490332500000012	9.83606995
2026-04-07 15:05:22.697	-0.2157463	0.0490332500000012	9.83606995
2026-04-07 15:05:22.942	-0.2157463	1.1985663167792674e-15	9.7870367
2026-04-07 15:05:23.201	-0.2157463	1.1985663167792674e-15	9.7870367
2026-04-07 15:05:23.470	-0.3138128	0.01961330000000121	9.8851032
2026-04-07 15:05:23.702	-0.3138128	0.01961330000000121	9.8851032
2026-04-07 15:05:23.942	-0.18632635	-0.20593964999999878	9.89490985
2026-04-07 15:05:24.199	-0.18632635	-0.20593964999999878	9.89490985
2026-04-07 15:05:24.443	-0.2353596	1.2141789040719834e-15	9.91452315
2026-04-07 15:05:24.699	-0.2353596	1.2141789040719834e-15	9.91452315
2026-04-07 15:05:24.941	-0.2549729	-0.29419949999999884	9.80665
2026-04-07 15:05:25.198	-0.2549729	-0.29419949999999884	9.80665
2026-04-07 15:05:25.438	-0.12748645	0.07845320000000121	9.77723005
2026-04-07 15:05:25.702	-0.12748645	0.07845320000000121	9.77723005
2026-04-07 15:05:25.941	-0.18632635	-0.16671304999999878	9.8262633
2026-04-07 15:05:26.203	-0.18632635	-0.16671304999999878	9.8262633
2026-04-07 15:05:26.438	-0.1569064	0.009806650000001204	9.83606995
2026-04-07 15:05:26.706	-0.1569064	0.009806650000001204	9.83606995
2026-04-07 15:05:26.941	-0.4707192	-0.05883989999999881	9.7478101
2026-04-07 15:05:27.199	-0.4707192	-0.05883989999999881	9.7478101
2026-04-07 15:05:27.440	-0.34323275	-0.02941994999999879	9.87529655
2026-04-07 15:05:27.697	-0.34323275	-0.02941994999999879	9.87529655
2026-04-07 15:05:27.938	0.0980665	-0.03922659999999879	9.85568325
2026-04-07 15:05:28.198	0.0980665	-0.03922659999999879	9.85568325
2026-04-07 15:05:28.438	-0.28439285000000003	-0.12748644999999878	9.9047165
2026-04-07 15:05:28.702	-0.28439285000000003	-0.12748644999999878	9.9047165
2026-04-07 15:05:28.941	-0.0588399	-0.0098066499999988	9.79684335
2026-04-07 15:05:29.202	-0.0588399	-0.0098066499999988	9.79684335
2026-04-07 15:05:29.438	-0.16671305	-0.07845319999999881	9.77723005
2026-04-07 15:05:29.702	-0.16671305	-0.07845319999999881	9.77723005
2026-04-07 15:05:29.938	-0.1176798	-0.0686465499999988	9.8458766
2026-04-07 15:05:30.198	-0.1176798	-0.0686465499999988	9.8458766
2026-04-07 15:05:30.440	-0.16671305	-0.0686465499999988	9.83606995
2026-04-07 15:05:30.704	-0.16671305	-0.0686465499999988	9.83606995
2026-04-07 15:05:30.941	-0.10787315	-0.0882598499999988	9.8654899
2026-04-07 15:05:31.200	-0.10787315	-0.0882598499999988	9.8654899
2026-04-07 15:05:31.438	-0.196133	-0.019613299999998796	9.83606995
2026-04-07 15:05:31.703	-0.196133	-0.019613299999998796	9.83606995
2026-04-07 15:05:31.942	-0.1176798	-0.0882598499999988	9.81645665
2026-04-07 15:05:32.200	-0.1176798	-0.0882598499999988	9.81645665
2026-04-07 15:05:32.438	-0.1569064	1.2045711580456967e-15	9.83606995
2026-04-07 15:05:32.698	-0.1569064	1.2045711580456967e-15	9.83606995
2026-04-07 15:05:32.939	-0.04903325	-0.04903324999999879	9.8654899
2026-04-07 15:05:33.203	-0.04903325	-0.04903324999999879	9.8654899
2026-04-07 15:05:33.438	0.08825985	-0.049033249999998814	9.6889702
2026-04-07 15:05:33.698	0.08825985	-0.049033249999998814	9.6889702
2026-04-07 15:05:33.939	-0.3530394	-0.0686465499999988	9.8458766
2026-04-07 15:05:34.205	-0.3530394	-0.0686465499999988	9.8458766
2026-04-07 15:05:34.437	-0.02941995	-0.07845319999999881	9.7674234
2026-04-07 15:05:34.698	-0.02941995	-0.07845319999999881	9.7674234
2026-04-07 15:05:34.941	-0.28439285000000003	-0.06864654999999878	9.9243298
2026-04-07 15:05:35.198	-0.28439285000000003	-0.06864654999999878	9.9243298
2026-04-07 15:05:35.438	-0.06864655	-0.0882598499999988	9.80665
2026-04-07 15:05:35.700	-0.06864655	-0.0882598499999988	9.80665
2026-04-07 15:05:35.940	-0.24516625	-0.029419949999998793	9.83606995
2026-04-07 15:05:36.200	-0.24516625	-0.029419949999998793	9.83606995
2026-04-07 15:05:36.437	-0.06864655	-0.06864654999999881	9.77723005
2026-04-07 15:05:36.701	-0.06864655	-0.06864654999999881	9.77723005
2026-04-07 15:05:36.940	-0.20593965	-0.05883989999999879	9.87529655
2026-04-07 15:05:37.198	-0.20593965	-0.05883989999999879	9.87529655
2026-04-07 15:05:37.439	-0.10787315	-0.0686465499999988	9.8458766
2026-04-07 15:05:37.698	-0.10787315	-0.0686465499999988	9.8458766
2026-04-07 15:05:37.939	-0.18632635	-0.0784531999999988	9.8654899
2026-04-07 15:05:38.198	-0.18632635	-0.0784531999999988	9.8654899
2026-04-07 15:05:38.438	-0.12748645	-0.0686465499999988	9.8262633
2026-04-07 15:05:38.699	-0.12748645	-0.0686465499999988	9.8262633
2026-04-07 15:05:38.939	-0.18632635	-0.0882598499999988	9.83606995
2026-04-07 15:05:39.198	-0.18632635	-0.0882598499999988	9.83606995
2026-04-07 15:05:39.438	-0.1372931	-0.019613299999998793	9.8458766
2026-04-07 15:05:39.698	-0.1372931	-0.019613299999998793	9.8458766
2026-04-07 15:05:39.942	-0.14709975	-0.0980664999999988	9.80665
2026-04-07 15:05:40.202	-0.14709975	-0.0980664999999988	9.80665
2026-04-07 15:05:40.439	-0.1569064	-0.029419949999998793	9.8654899
2026-04-07 15:05:40.702	-0.1569064	-0.029419949999998793	9.8654899
2026-04-07 15:05:40.938	-0.10787315	-0.1078731499999988	9.79684335
2026-04-07 15:05:41.201	-0.10787315	-0.1078731499999988	9.79684335
2026-04-07 15:05:41.438	-0.2157463	-0.0686465499999988	9.89490985
2026-04-07 15:05:41.705	-0.2157463	-0.0686465499999988	9.89490985
2026-04-07 15:05:41.939	-0.10787315	-0.019613299999998803	9.7870367
2026-04-07 15:05:42.201	-0.10787315	-0.019613299999998803	9.7870367
2026-04-07 15:05:42.442	-0.18632635	-0.1078731499999988	9.85568325
2026-04-07 15:05:42.704	-0.18632635	-0.1078731499999988	9.85568325
2026-04-07 15:05:42.938	-0.1176798	1.2033701897924109e-15	9.8262633
2026-04-07 15:05:43.200	-0.1176798	1.2033701897924109e-15	9.8262633
2026-04-07 15:05:43.442	-0.16671305	-0.1274864499999988	9.83606995
2026-04-07 15:05:43.698	-0.16671305	-0.1274864499999988	9.83606995
2026-04-07 15:05:43.942	-0.16671305	-0.019613299999998793	9.85568325
2026-04-07 15:05:44.204	-0.16671305	-0.019613299999998793	9.85568325
2026-04-07 15:05:44.442	-0.12748645	-0.0784531999999988	9.81645665
2026-04-07 15:05:44.699	-0.12748645	-0.0784531999999988	9.81645665
2026-04-07 15:05:44.942	-0.16671305	-0.0980664999999988	9.8458766
2026-04-07 15:05:45.200	-0.16671305	-0.0980664999999988	9.8458766
2026-04-07 15:05:45.437	-0.1372931	-0.0392265999999988	9.81645665
2026-04-07 15:05:45.700	-0.1372931	-0.0392265999999988	9.81645665
2026-04-07 15:05:45.943	-0.1765197	-0.0980664999999988	9.85568325
2026-04-07 15:05:46.199	-0.1765197	-0.0980664999999988	9.85568325
2026-04-07 15:05:46.439	-0.1176798	-0.0294199499999988	9.81645665
2026-04-07 15:05:46.702	-0.1176798	-0.0294199499999988	9.81645665
2026-04-07 15:05:46.940	-0.1765197	-0.0980664999999988	9.85568325
2026-04-07 15:05:47.200	-0.1765197	-0.0980664999999988	9.85568325
2026-04-07 15:05:47.442	-0.10787315	-0.0686465499999988	9.80665
2026-04-07 15:05:47.698	-0.10787315	-0.0686465499999988	9.80665
2026-04-07 15:05:47.939	-0.196133	-0.03922659999999879	9.87529655
2026-04-07 15:05:48.200	-0.196133	-0.03922659999999879	9.87529655
2026-04-07 15:05:48.442	-0.08825985	-0.0784531999999988	9.80665
2026-04-07 15:05:48.703	-0.08825985	-0.0784531999999988	9.80665
2026-04-07 15:05:48.938	-0.2157463	-0.0784531999999988	9.8851032
2026-04-07 15:05:49.198	-0.2157463	-0.0784531999999988	9.8851032
2026-04-07 15:05:49.438	-0.0980665	-0.0686465499999988	9.80665
2026-04-07 15:05:49.703	-0.0980665	-0.0686465499999988	9.80665
2026-04-07 15:05:49.939	-0.2157463	-0.0980664999999988	9.8458766
2026-04-07 15:05:50.197	-0.2157463	-0.0980664999999988	9.8458766
2026-04-07 15:05:50.442	-0.10787315	-0.0098066499999988	9.79684335
2026-04-07 15:05:50.702	-0.10787315	-0.0098066499999988	9.79684335
2026-04-07 15:05:50.942	-0.1765197	-0.0882598499999988	9.83606995
2026-04-07 15:05:51.198	-0.1765197	-0.0882598499999988	9.83606995
2026-04-07 15:05:51.442	-0.12748645	-0.0490332499999988	9.83606995
2026-04-07 15:05:51.699	-0.12748645	-0.0490332499999988	9.83606995
2026-04-07 15:05:51.938	-0.1765197	-0.0784531999999988	9.85568325
2026-04-07 15:05:52.197	-0.1765197	-0.0784531999999988	9.85568325
2026-04-07 15:05:52.439	-0.1176798	-0.0980664999999988	9.80665
2026-04-07 15:05:52.697	-0.1176798	-0.0980664999999988	9.80665
2026-04-07 15:05:52.939	-0.2157463	-0.029419949999998793	9.8654899
2026-04-07 15:05:53.199	-0.2157463	-0.029419949999998793	9.8654899
2026-04-07 15:05:53.441	-0.08825985	-0.0686465499999988	9.7870367
2026-04-07 15:05:53.702	-0.08825985	-0.0686465499999988	9.7870367
2026-04-07 15:05:53.942	-0.20593965	-0.0686465499999988	9.87529655
2026-04-07 15:05:54.202	-0.20593965	-0.0686465499999988	9.87529655
2026-04-07 15:05:54.442	-0.0980665	-0.0686465499999988	9.81645665
2026-04-07 15:05:54.702	-0.0980665	-0.0686465499999988	9.81645665
2026-04-07 15:05:54.940	-0.196133	-0.0980664999999988	9.8458766
2026-04-07 15:05:55.202	-0.196133	-0.0980664999999988	9.8458766
2026-04-07 15:05:55.441	-0.12748645	-0.0196132999999988	9.81645665
2026-04-07 15:05:55.698	-0.12748645	-0.0196132999999988	9.81645665
2026-04-07 15:05:55.943	-0.1569064	-0.0980664999999988	9.8458766
2026-04-07 15:05:56.203	-0.1569064	-0.0980664999999988	9.8458766
2026-04-07 15:05:56.441	-0.1176798	-0.0686465499999988	9.81645665
2026-04-07 15:05:56.702	-0.1176798	-0.0686465499999988	9.81645665
2026-04-07 15:05:56.941	-0.22555295	-0.04903324999999879	9.89490985
2026-04-07 15:05:57.198	-0.22555295	-0.04903324999999879	9.89490985
2026-04-07 15:05:57.439	-0.0588399	-0.07845319999999881	9.75761675
2026-04-07 15:05:57.699	-0.0588399	-0.07845319999999881	9.75761675
2026-04-07 15:05:57.938	-0.2353596	-0.05883989999999879	9.8851032
2026-04-07 15:05:58.198	-0.2353596	-0.05883989999999879	9.8851032
2026-04-07 15:05:58.438	-0.0980665	-0.03922659999999879	9.83606995
2026-04-07 15:05:58.700	-0.0980665	-0.03922659999999879	9.83606995
2026-04-07 15:05:58.942	-0.18632635	-0.1274864499999988	9.8458766
2026-04-07 15:05:59.201	-0.18632635	-0.1274864499999988	9.8458766
2026-04-07 15:05:59.442	-0.12748645	1.202169221539125e-15	9.81645665
2026-04-07 15:05:59.702	-0.12748645	1.202169221539125e-15	9.81645665
2026-04-07 15:05:59.942	-0.16671305	-0.1176797999999988	9.85568325
2026-04-07 15:06:00.202	-0.16671305	-0.1176797999999988	9.85568325
2026-04-07 15:06:00.442	-0.12748645	-0.0686465499999988	9.80665
2026-04-07 15:06:00.704	-0.12748645	-0.0686465499999988	9.80665
2026-04-07 15:06:00.941	-0.2157463	-0.03922659999999879	9.8851032
2026-04-07 15:06:01.198	-0.2157463	-0.03922659999999879	9.8851032
2026-04-07 15:06:01.441	-0.0784532	-0.0784531999999988	9.79684335
2026-04-07 15:06:01.705	-0.0784532	-0.0784531999999988	9.79684335
2026-04-07 15:06:01.940	-0.20593965	-0.1078731499999988	9.85568325
2026-04-07 15:06:02.203	-0.20593965	-0.1078731499999988	9.85568325
2026-04-07 15:06:02.438	-0.1176798	-0.0196132999999988	9.79684335
2026-04-07 15:06:02.697	-0.1176798	-0.0196132999999988	9.79684335
2026-04-07 15:06:02.938	-0.1765197	-0.1078731499999988	9.83606995
2026-04-07 15:06:03.203	-0.1765197	-0.1078731499999988	9.83606995
2026-04-07 15:06:03.438	-0.12748645	-0.0294199499999988	9.8262633
2026-04-07 15:06:03.704	-0.12748645	-0.0294199499999988	9.8262633
2026-04-07 15:06:03.938	-0.1569064	-0.1078731499999988	9.8458766
2026-04-07 15:06:04.202	-0.1569064	-0.1078731499999988	9.8458766
2026-04-07 15:06:04.443	-0.14709975	-0.0784531999999988	9.8262633
2026-04-07 15:06:04.704	-0.14709975	-0.0784531999999988	9.8262633
2026-04-07 15:06:04.941	-0.1765197	-0.0588398999999988	9.8458766
2026-04-07 15:06:05.200	-0.1765197	-0.0588398999999988	9.8458766
2026-04-07 15:06:05.438	-0.1372931	-0.0490332499999988	9.80665
2026-04-07 15:06:05.702	-0.1372931	-0.0490332499999988	9.80665
2026-04-07 15:06:05.942	-0.14709975	-0.0686465499999988	9.8262633
2026-04-07 15:06:06.203	-0.14709975	-0.0686465499999988	9.8262633
2026-04-07 15:06:06.438	-0.14709975	-0.0686465499999988	9.8458766
2026-04-07 15:06:06.702	-0.14709975	-0.0686465499999988	9.8458766
2026-04-07 15:06:06.938	-0.14709975	-0.0980664999999988	9.83606995
2026-04-07 15:06:07.197	-0.14709975	-0.0980664999999988	9.83606995
2026-04-07 15:06:07.439	-0.16671305	-0.0686465499999988	9.85568325
2026-04-07 15:06:07.697	-0.16671305	-0.0686465499999988	9.85568325
2026-04-07 15:06:07.942	-0.1372931	-0.0490332499999988	9.81645665
2026-04-07 15:06:08.199	-0.1372931	-0.0490332499999988	9.81645665
2026-04-07 15:06:08.440	-0.1569064	-0.0784531999999988	9.8458766
2026-04-07 15:06:08.699	-0.1569064	-0.0784531999999988	9.8458766
2026-04-07 15:06:08.938	-0.1176798	-0.0490332499999988	9.81645665
2026-04-07 15:06:09.201	-0.1176798	-0.0490332499999988	9.81645665
2026-04-07 15:06:09.439	-0.196133	-0.0980664999999988	9.87529655
2026-04-07 15:06:09.704	-0.196133	-0.0980664999999988	9.87529655
2026-04-07 15:06:09.938	-0.12748645	-0.0294199499999988	9.81645665
2026-04-07 15:06:10.204	-0.12748645	-0.0294199499999988	9.81645665
2026-04-07 15:06:10.439	-0.16671305	-0.0686465499999988	9.83606995
2026-04-07 15:06:10.702	-0.16671305	-0.0686465499999988	9.83606995
2026-04-07 15:06:10.941	-0.14709975	-0.03922659999999879	9.8458766
2026-04-07 15:06:11.201	-0.14709975	-0.03922659999999879	9.8458766
2026-04-07 15:06:11.440	-0.1176798	-0.0882598499999988	9.81645665
2026-04-07 15:06:11.702	-0.1176798	-0.0882598499999988	9.81645665
2026-04-07 15:06:11.942	-0.196133	-0.0882598499999988	9.8851032
2026-04-07 15:06:12.203	-0.196133	-0.0882598499999988	9.8851032
2026-04-07 15:06:12.443	-0.1176798	-0.0490332499999988	9.79684335
2026-04-07 15:06:12.697	-0.1176798	-0.0490332499999988	9.79684335
2026-04-07 15:06:12.938	-0.18632635	-0.0784531999999988	9.8458766
2026-04-07 15:06:13.198	-0.18632635	-0.0784531999999988	9.8458766
2026-04-07 15:06:13.439	-0.1176798	-0.0392265999999988	9.81645665
2026-04-07 15:06:13.697	-0.1176798	-0.0392265999999988	9.81645665
2026-04-07 15:06:13.938	-0.196133	-0.1176797999999988	9.87529655
2026-04-07 15:06:14.198	-0.196133	-0.1176797999999988	9.87529655
2026-04-07 15:06:14.439	-0.0980665	-0.009806649999998801	9.7870367
2026-04-07 15:06:14.699	-0.0980665	-0.009806649999998801	9.7870367
2026-04-07 15:06:14.939	-0.196133	-0.0882598499999988	9.85568325
2026-04-07 15:06:15.198	-0.196133	-0.0882598499999988	9.85568325
2026-04-07 15:06:15.438	-0.10787315	-0.0392265999999988	9.8262633
2026-04-07 15:06:15.699	-0.10787315	-0.0392265999999988	9.8262633
2026-04-07 15:06:15.940	-0.16671305	-0.1078731499999988	9.8262633
2026-04-07 15:06:16.199	-0.16671305	-0.1078731499999988	9.8262633
2026-04-07 15:06:16.439	-0.1765197	-0.03922659999999879	9.85568325
2026-04-07 15:06:16.698	-0.1765197	-0.03922659999999879	9.85568325
2026-04-07 15:06:16.939	-0.10787315	-0.05883989999999881	9.7674234
2026-04-07 15:06:17.199	-0.10787315	-0.05883989999999881	9.7674234
2026-04-07 15:06:17.438	-0.20593965	-0.05883989999999879	9.87529655
2026-04-07 15:06:17.697	-0.20593965	-0.05883989999999879	9.87529655
2026-04-07 15:06:17.939	-0.08825985	-0.0196132999999988	9.79684335
2026-04-07 15:06:18.197	-0.08825985	-0.0196132999999988	9.79684335
2026-04-07 15:06:18.438	-0.18632635	-0.1176797999999988	9.87529655
2026-04-07 15:06:18.699	-0.18632635	-0.1176797999999988	9.87529655
2026-04-07 15:06:18.939	-0.10787315	-0.0490332499999988	9.8262633
2026-04-07 15:06:19.202	-0.10787315	-0.0490332499999988	9.8262633
2026-04-07 15:06:19.439	-0.18632635	-0.1176797999999988	9.8458766
