timestamp,acc_x,acc_y,acc_z
2026-04-18 20:15:05.056,-0.1569064,-0.0882598499999988,9.83606995
2026-04-18 20:15:05.234,-0.1569064,-0.0882598499999988,9.83606995
2026-04-18 20:15:05.428,-0.1569064,-0.0882598499999988,9.83606995
2026-04-18 20:15:05.629,-0.1176798,-0.0588398999999988,9.83606995
2026-04-18 20:15:05.831,-0.1372931,-0.0784531999999988,9.8654899
2026-04-18 20:15:06.030,-0.14709975,-0.10787314999999878,9.89490985
2026-04-18 20:15:06.227,-0.14709975,-0.10787314999999878,9.89490985
2026-04-18 20:15:06.428,-0.08825985,-0.0490332499999988,9.80665
2026-04-18 20:15:06.628,-0.0980665,-0.0588398999999988,9.80665
2026-04-18 20:15:06.828,-0.14709975,-0.0980664999999988,9.8262633
2026-04-18 20:15:07.028,-0.14709975,-0.0980664999999988,9.8262633
2026-04-18 20:15:07.227,-0.1372931,-0.0686465499999988,9.87529655
2026-04-18 20:15:07.427,-0.08825985,-0.0490332499999988,9.8262633
2026-04-18 20:15:07.627,-0.0980665,-0.0882598499999988,9.8458766
2026-04-18 20:15:07.828,-0.14709975,-0.0980664999999988,9.85568325
2026-04-18 20:15:08.033,-0.1569064,-0.0588398999999988,9.8262633
2026-04-18 20:15:08.228,-0.12748645,-0.0686465499999988,9.83606995
2026-04-18 20:15:08.427,-0.12748645,-0.0686465499999988,9.83606995
2026-04-18 20:15:08.628,-0.12748645,-0.0980664999999988,9.8262633
2026-04-18 20:15:08.828,-0.14709975,-0.03922659999999879,9.8851032
2026-04-18 20:15:09.027,-0.1176798,-0.05883989999999879,9.8851032
2026-04-18 20:15:09.227,-0.10787315,-0.1078731499999988,9.8262633
2026-04-18 20:15:09.427,-0.14709975,-0.0980664999999988,9.81645665
2026-04-18 20:15:09.627,-0.14709975,-0.0686465499999988,9.8458766
2026-04-18 20:15:09.829,-0.10787315,-0.0686465499999988,9.8458766
2026-04-18 20:15:10.027,-0.10787315,-0.0686465499999988,9.8654899
2026-04-18 20:15:10.226,-0.1372931,-0.0784531999999988,9.87529655
2026-04-18 20:15:10.428,-0.12748645,-0.0882598499999988,9.83606995
2026-04-18 20:15:10.628,-0.1176798,-0.0882598499999988,9.81645665
2026-04-18 20:15:10.828,-0.1569064,-0.0882598499999988,9.85568325
2026-04-18 20:15:11.028,-0.16671305,-0.0686465499999988,9.8654899
2026-04-18 20:15:11.227,-0.0980665,-0.0588398999999988,9.8262633
2026-04-18 20:15:11.428,-0.0784532,-0.0980664999999988,9.79684335
2026-04-18 20:15:11.628,-0.12748645,-0.0882598499999988,9.83606995
2026-04-18 20:15:11.828,-0.18632635,-0.05883989999999879,9.89490985
2026-04-18 20:15:12.028,-0.14709975,-0.0784531999999988,9.85568325
2026-04-18 20:15:12.230,-0.08825985,-0.1078731499999988,9.81645665
2026-04-18 20:15:12.432,-0.0980665,-0.0882598499999988,9.8262633
2026-04-18 20:15:12.628,-0.1372931,-0.0588398999999988,9.83606995
2026-04-18 20:15:12.830,-0.1569064,-0.0490332499999988,9.83606995
2026-04-18 20:15:13.028,-0.1372931,-0.0882598499999988,9.83606995
2026-04-18 20:15:13.227,-0.10787315,-0.1274864499999988,9.83606995
2026-04-18 20:15:13.428,-0.1176798,-0.0784531999999988,9.8262633
2026-04-18 20:15:13.627,-0.1372931,-0.029419949999998793,9.8654899
2026-04-18 20:15:13.828,-0.1372931,-0.0686465499999988,9.8654899
2026-04-18 20:15:14.027,-0.12748645,-0.1176797999999988,9.81645665
2026-04-18 20:15:14.227,-0.12748645,-0.0882598499999988,9.8458766
2026-04-18 20:15:14.427,-0.1372931,-0.05883989999999879,9.8851032
2026-04-18 20:15:14.627,-0.1372931,-0.0686465499999988,9.8262633
2026-04-18 20:15:14.829,-0.10787315,-0.0980664999999988,9.80665
2026-04-18 20:15:15.027,-0.1176798,-0.0784531999999988,9.83606995
2026-04-18 20:15:15.227,-0.14709975,-0.0686465499999988,9.8654899
2026-04-18 20:15:15.427,-0.1569064,-0.0784531999999988,9.8654899
2026-04-18 20:15:15.628,-0.12748645,-0.0784531999999988,9.8458766
2026-04-18 20:15:16.027,-0.1176798,-0.0882598499999988,9.83606995
2026-04-18 20:15:16.267,0.4511059,-0.06864654999999882,9.6497436
2026-04-18 20:15:16.527,0.36284605000000003,-0.0980664999999988,9.80665
2026-04-18 20:15:16.766,-0.0588399,-0.0686465499999988,9.8458766
2026-04-18 20:15:17.029,-0.36284605000000003,-0.05883989999999879,9.9047165
2026-04-18 20:15:17.268,-0.16671305,0.1274864500000012,9.7478101
2026-04-18 20:15:17.527,-0.0980665,0.1372931000000012,9.7478101
2026-04-18 20:15:17.769,-0.24516625,-0.17651969999999878,9.87529655
2026-04-18 20:15:18.026,-0.26477955,-0.3236194499999988,9.8458766
2026-04-18 20:15:18.227,-0.26477955,-0.3236194499999988,9.8458766
2026-04-18 20:15:18.429,-0.26477955,-0.3236194499999988,9.8458766
2026-04-18 20:15:18.828,-0.14709975,-0.1372930999999988,9.75761675
2026-04-18 20:15:19.028,-0.2353596,-0.3040061499999988,9.91452315
2026-04-18 20:15:19.227,-0.26477955,-0.20593964999999878,9.8458766
2026-04-18 20:15:19.428,-0.2353596,-0.1470997499999988,9.7870367
2026-04-18 20:15:19.627,-0.22555295,-0.21574629999999878,9.87529655
2026-04-18 20:15:19.828,-0.20593965,-0.21574629999999878,9.8262633
2026-04-18 20:15:20.025,-0.22555295,-0.1765196999999988,9.7870367
2026-04-18 20:15:20.229,-0.2549729,-0.1274864499999988,9.8851032
2026-04-18 20:15:20.429,-0.2157463,-0.1372930999999988,9.87529655
2026-04-18 20:15:20.628,-0.2157463,-0.1372930999999988,9.87529655
2026-04-18 20:15:20.828,-0.2157463,-0.1372930999999988,9.87529655
2026-04-18 20:15:21.029,-0.2549729,-0.0980664999999988,9.8654899
2026-04-18 20:15:21.228,-0.28439285000000003,-0.0980664999999988,9.79684335
2026-04-18 20:15:21.427,-0.2549729,-0.1176797999999988,9.8654899
2026-04-18 20:15:21.629,-0.16671305,-0.1372930999999988,9.80665
2026-04-18 20:15:21.827,-0.20593965,-0.1176797999999988,9.7870367
2026-04-18 20:15:22.028,-0.2745862,-0.15690639999999878,9.9243298
2026-04-18 20:15:22.227,-0.2745862,-0.15690639999999878,9.9243298
2026-04-18 20:15:22.427,-0.2745862,-0.15690639999999878,9.9243298
2026-04-18 20:15:22.628,0.26477955,-0.009806649999998796,9.83606995
2026-04-18 20:15:22.827,0.40207265000000003,-0.019613299999998814,9.6889702
2026-04-18 20:15:23.025,0.196133,1.202169221539125e-15,9.81645665
2026-04-18 20:15:23.227,-0.12748645,-0.03922659999999878,9.9439431
2026-04-18 20:15:23.426,-0.00980665,-0.06864654999999878,9.9243298
2026-04-18 20:15:23.628,0.1765197,-0.10787314999999882,9.6889702
2026-04-18 20:15:23.829,0.2157463,-0.0980664999999988,9.81645665
2026-04-18 20:15:24.029,0.0588399,-0.09806649999999878,9.89490985
2026-04-18 20:15:24.228,0.0,-0.1274864499999988,9.8654899
2026-04-18 20:15:24.428,0.0588399,-0.1176797999999988,9.85568325
2026-04-18 20:15:24.630,0.0980665,-0.1372930999999988,9.8458766
2026-04-18 20:15:24.829,0.0392266,-0.1667130499999988,9.80665
2026-04-18 20:15:25.029,0.0392266,-0.1667130499999988,9.80665
2026-04-18 20:15:25.228,-0.196133,-0.1078731499999988,9.81645665
2026-04-18 20:15:25.427,-0.196133,-0.1078731499999988,9.81645665
2026-04-18 20:15:25.627,-0.51975245,-0.3628460499999988,9.8654899
2026-04-18 20:15:25.827,-0.38245935,-0.2647795499999988,9.79684335
2026-04-18 20:15:26.028,-0.2549729,-0.16671304999999878,9.8458766
2026-04-18 20:15:26.233,-0.26477955,-0.20593964999999878,9.8262633
2026-04-18 20:15:26.428,-0.3138128,-0.20593964999999878,9.8262633
2026-04-18 20:15:26.627,-0.30400615,-0.15690639999999878,9.91452315
2026-04-18 20:15:26.827,-0.2157463,0.029419950000001208,9.85568325
2026-04-18 20:15:27.027,-0.14709975,1.1985663167792674e-15,9.7870367
2026-04-18 20:15:27.226,-0.26477955,-0.2059396499999988,9.80665
2026-04-18 20:15:27.428,-0.2157463,-0.2549728999999988,9.89490985
2026-04-18 20:15:27.630,-0.2549729,-0.1274864499999988,9.85568325
2026-04-18 20:15:27.827,-0.2157463,-0.019613299999998786,9.9047165
2026-04-18 20:15:28.026,-0.20593965,-0.2647795499999988,9.80665
2026-04-18 20:15:28.226,-0.1569064,-0.1470997499999988,9.80665
2026-04-18 20:15:28.628,-0.1372931,-0.0392265999999988,9.8262633
2026-04-18 20:15:28.828,-0.16671305,-0.1078731499999988,9.80665
2026-04-18 20:15:29.027,-0.1765197,-0.17651969999999878,9.87529655
2026-04-18 20:15:29.228,-0.14709975,-0.029419949999998793,9.8458766
2026-04-18 20:15:29.428,-0.12748645,1.202169221539125e-15,9.81645665
2026-04-18 20:15:29.628,-0.16671305,-0.0882598499999988,9.83606995
2026-04-18 20:15:29.833,-0.1765197,-0.1372930999999988,9.8262633
2026-04-18 20:15:30.027,-0.14709975,-0.0980664999999988,9.80665
2026-04-18 20:15:30.232,-0.1176798,1.2069730945522684e-15,9.85568325
2026-04-18 20:15:30.427,-0.12748645,-0.08825984999999878,9.89490985
2026-04-18 20:15:30.628,-0.14709975,-0.1078731499999988,9.8654899
2026-04-18 20:15:30.831,-0.14709975,-0.0686465499999988,9.8262633
2026-04-18 20:15:31.027,-0.14709975,-0.0686465499999988,9.8262633
2026-04-18 20:15:31.226,-0.12748645,-0.0588398999999988,9.8262633
2026-04-18 20:15:31.427,-0.12748645,-0.1176797999999988,9.8262633
2026-04-18 20:15:31.627,-0.14709975,-0.0980664999999988,9.8851032
2026-04-18 20:15:31.830,-0.1372931,1.2045711580456967e-15,9.83606995
2026-04-18 20:15:32.035,-0.1372931,1.2045711580456967e-15,9.83606995
2026-04-18 20:15:32.228,-0.1372931,-0.1274864499999988,9.83606995
2026-04-18 20:15:32.427,-0.1372931,-0.0784531999999988,9.8654899
2026-04-18 20:15:32.627,-0.12748645,-0.019613299999998793,9.8458766
2026-04-18 20:15:32.830,-0.1372931,-0.0588398999999988,9.8458766
2026-04-18 20:15:33.027,-0.1372931,-0.0588398999999988,9.8458766
2026-04-18 20:15:33.227,-0.1372931,-0.0784531999999988,9.8262633
2026-04-18 20:15:33.427,-0.10787315,-0.019613299999998793,9.85568325
2026-04-18 20:15:33.630,-0.12748645,-0.05883989999999879,9.87529655
2026-04-18 20:15:33.829,-0.1372931,-0.1176797999999988,9.8458766
2026-04-18 20:15:34.027,-0.1372931,-0.0980664999999988,9.83606995
2026-04-18 20:15:34.230,-0.1372931,-0.0588398999999988,9.83606995
2026-04-18 20:15:34.428,-0.1372931,-0.0588398999999988,9.83606995
2026-04-18 20:15:34.628,-0.14709975,-0.0882598499999988,9.8851032
2026-04-18 20:15:34.829,-0.1372931,-0.0784531999999988,9.87529655
2026-04-18 20:15:35.027,-0.10787315,-0.0784531999999988,9.83606995
2026-04-18 20:15:35.227,-0.10787315,-0.0784531999999988,9.80665
2026-04-18 20:15:35.428,-0.1569064,-0.0784531999999988,9.8458766
2026-04-18 20:15:35.627,-0.1765197,-0.0882598499999988,9.8654899
2026-04-18 20:15:35.828,-0.12748645,-0.0686465499999988,9.8654899
2026-04-18 20:15:36.027,-0.0784532,-0.0686465499999988,9.83606995
2026-04-18 20:15:36.227,-0.1176798,-0.0882598499999988,9.83606995
2026-04-18 20:15:36.427,-0.1569064,-0.0882598499999988,9.83606995
2026-04-18 20:15:36.634,-0.1569064,-0.0882598499999988,9.85568325
2026-04-18 20:15:36.828,-0.10787315,-0.0686465499999988,9.83606995
2026-04-18 20:15:37.029,-0.1176798,-0.0588398999999988,9.8262633
2026-04-18 20:15:37.227,-0.14709975,-0.0882598499999988,9.8458766
2026-04-18 20:15:37.627,-0.10787315,-0.0980664999999988,9.8262633
2026-04-18 20:15:37.827,-0.1176798,-0.0490332499999988,9.83606995
2026-04-18 20:15:38.028,-0.14709975,-0.04903324999999879,9.85568325
2026-04-18 20:15:38.227,-0.1372931,-0.1078731499999988,9.85568325
2026-04-18 20:15:38.428,-0.1176798,-0.1078731499999988,9.8458766
2026-04-18 20:15:38.627,-0.12748645,-0.0588398999999988,9.8262633
2026-04-18 20:15:38.829,-0.1569064,-0.04903324999999879,9.85568325
2026-04-18 20:15:39.027,-0.12748645,-0.1078731499999988,9.83606995
2026-04-18 20:15:39.227,-0.0980665,-0.0980664999999988,9.8262633
2026-04-18 20:15:39.429,-0.12748645,-0.03922659999999879,9.83606995
2026-04-18 20:15:39.628,-0.16671305,-0.0784531999999988,9.89490985
2026-04-18 20:15:39.827,-0.1372931,-0.1078731499999988,9.8654899
2026-04-18 20:15:40.028,-0.10787315,-0.0784531999999988,9.83606995
2026-04-18 20:15:40.227,-0.1176798,-0.0588398999999988,9.81645665
2026-04-18 20:15:40.428,-0.14709975,-0.0882598499999988,9.83606995
2026-04-18 20:15:40.629,-0.14709975,-0.0882598499999988,9.83606995
2026-04-18 20:15:40.829,-0.1176798,-0.0490332499999988,9.8458766
2026-04-18 20:15:41.028,-0.1176798,-0.0490332499999988,9.8458766
2026-04-18 20:15:41.227,-0.1372931,-0.1078731499999988,9.85568325
2026-04-18 20:15:41.426,-0.16671305,-0.1176797999999988,9.85568325
2026-04-18 20:15:41.629,-0.12748645,-0.0588398999999988,9.8262633
2026-04-18 20:15:41.828,-0.10787315,-0.0490332499999988,9.8262633
2026-04-18 20:15:42.027,-0.12748645,-0.0882598499999988,9.81645665
2026-04-18 20:15:42.226,-0.14709975,-0.0980664999999988,9.8458766
2026-04-18 20:15:42.427,-0.12748645,-0.05883989999999879,9.8654899
2026-04-18 20:15:42.628,-0.10787315,-0.0882598499999988,9.85568325
2026-04-18 20:15:42.828,-0.1372931,-0.1176797999999988,9.8458766
2026-04-18 20:15:43.027,-0.1569064,-0.05883989999999879,9.85568325
2026-04-18 20:15:43.227,-0.12748645,-0.0294199499999988,9.81645665
2026-04-18 20:15:43.429,-0.10787315,-0.0686465499999988,9.8262633
2026-04-18 20:15:43.629,-0.10787315,-0.0686465499999988,9.8262633
2026-04-18 20:15:43.828,-0.14709975,-0.0980664999999988,9.8654899
2026-04-18 20:15:44.028,-0.1372931,-0.0490332499999988,9.83606995
2026-04-18 20:15:44.227,-0.1176798,-0.0588398999999988,9.83606995
2026-04-18 20:15:44.428,-0.1176798,-0.0686465499999988,9.8458766
2026-04-18 20:15:44.627,-0.12748645,-0.1078731499999988,9.8458766
2026-04-18 20:15:44.829,-0.14709975,-0.1078731499999988,9.83606995
2026-04-18 20:15:45.027,-0.1372931,-0.03922659999999879,9.8458766
2026-04-18 20:15:45.228,-0.1176798,-0.03922659999999879,9.83606995
2026-04-18 20:15:45.427,-0.1176798,-0.1078731499999988,9.83606995
2026-04-18 20:15:45.626,-0.1176798,-0.1078731499999988,9.83606995
2026-04-18 20:15:45.828,-0.14709975,-0.04903324999999879,9.85568325
2026-04-18 20:15:46.027,-0.1176798,-0.029419949999998793,9.85568325
2026-04-18 20:15:46.226,-0.0980665,-0.0882598499999988,9.81645665
2026-04-18 20:15:46.428,-0.12748645,-0.1176797999999988,9.83606995
2026-04-18 20:15:46.627,-0.1569064,-0.0882598499999988,9.85568325
2026-04-18 20:15:46.825,-0.1569064,-0.0882598499999988,9.85568325
2026-04-18 20:15:47.028,-0.10787315,-0.03922659999999879,9.83606995
2026-04-18 20:15:47.229,-0.10787315,-0.0784531999999988,9.83606995
2026-04-18 20:15:47.427,-0.1372931,-0.1176797999999988,9.8262633
2026-04-18 20:15:47.627,-0.1569064,-0.0882598499999988,9.8654899
2026-04-18 20:15:47.827,-0.12748645,-0.03922659999999879,9.85568325
2026-04-18 20:15:48.027,-0.0980665,-0.0392265999999988,9.8262633
2026-04-18 20:15:48.427,-0.10787315,-0.0980664999999988,9.81645665
2026-04-18 20:15:48.628,-0.16671305,-0.0784531999999988,9.8654899
2026-04-18 20:15:48.828,-0.1176798,-0.029419949999998793,9.83606995
2026-04-18 20:15:49.026,-0.08825985,-0.0588398999999988,9.8262633
2026-04-18 20:15:49.227,-0.10787315,-0.1176797999999988,9.8458766
2026-04-18 20:15:49.627,-0.1765197,-0.03922659999999879,9.8851032
2026-04-18 20:15:49.867,-0.06864655,-0.1078731499999988,9.77723005
2026-04-18 20:15:50.128,-0.10787315,-0.0980664999999988,9.83606995
2026-04-18 20:15:50.367,-0.16671305,-0.0686465499999988,9.8851032
2026-04-18 20:15:50.628,-0.16671305,-0.05883989999999879,9.8654899
2026-04-18 20:15:50.868,-0.08825985,-0.0980664999999988,9.81645665
2026-04-18 20:15:51.126,-0.1176798,-0.0588398999999988,9.8262633
2026-04-18 20:15:51.366,-0.1569064,-0.05883989999999879,9.87529655
2026-04-18 20:15:51.627,-0.14709975,-0.0980664999999988,9.85568325
2026-04-18 20:15:51.867,-0.1176798,-0.0588398999999988,9.81645665
2026-04-18 20:15:52.126,-0.1372931,-0.0490332499999988,9.8458766
2026-04-18 20:15:52.367,-0.12748645,-0.0882598499999988,9.85568325
2026-04-18 20:15:52.627,-0.1372931,-0.1078731499999988,9.87529655
2026-04-18 20:15:52.867,-0.12748645,-0.1078731499999988,9.85568325
2026-04-18 20:15:53.128,-0.1176798,-0.0392265999999988,9.81645665
2026-04-18 20:15:53.368,-0.14709975,-0.0882598499999988,9.8262633
2026-04-18 20:15:53.628,-0.1569064,-0.1176797999999988,9.85568325
2026-04-18 20:15:53.867,-0.0980665,-0.0588398999999988,9.83606995
2026-04-18 20:15:54.368,-0.14709975,-0.0882598499999988,9.87529655
2026-04-18 20:15:54.627,-0.1569064,-0.0882598499999988,9.8654899
2026-04-18 20:15:54.867,-0.0784532,-0.0686465499999988,9.80665
2026-04-18 20:15:55.126,-0.12748645,-0.0882598499999988,9.83606995
2026-04-18 20:15:55.368,-0.1765197,-0.0882598499999988,9.87529655
2026-04-18 20:15:55.628,-0.1372931,-0.0686465499999988,9.87529655
2026-04-18 20:15:55.866,-0.10787315,-0.0784531999999988,9.80665
2026-04-18 20:15:56.126,-0.1569064,-0.0980664999999988,9.8262633
2026-04-18 20:15:56.367,-0.1569064,-0.0980664999999988,9.8262633
2026-04-18 20:15:56.628,-0.1176798,-0.0686465499999988,9.8458766
2026-04-18 20:15:56.867,-0.12748645,-0.0784531999999988,9.85568325
2026-04-18 20:15:57.126,-0.1569064,-0.0784531999999988,9.85568325
2026-04-18 20:15:57.367,-0.1372931,-0.0882598499999988,9.8262633
2026-04-18 20:15:57.628,-0.10787315,-0.0882598499999988,9.80665
2026-04-18 20:15:57.866,-0.14709975,-0.04903324999999879,9.85568325
2026-04-18 20:15:58.126,-0.14709975,-0.0882598499999988,9.87529655
2026-04-18 20:15:58.366,-0.1176798,-0.0980664999999988,9.85568325
2026-04-18 20:15:58.628,-0.10787315,-0.0686465499999988,9.81645665
2026-04-18 20:15:58.867,-0.14709975,-0.0784531999999988,9.8458766
2026-04-18 20:15:59.127,-0.14709975,-0.0686465499999988,9.83606995
2026-04-18 20:15:59.366,-0.12748645,-0.0784531999999988,9.8458766
2026-04-18 20:15:59.628,-0.0980665,-0.1078731499999988,9.85568325
2026-04-18 20:15:59.867,-0.1569064,-0.0490332499999988,9.8458766
2026-04-18 20:16:00.128,-0.14709975,-0.0588398999999988,9.8458766
2026-04-18 20:16:00.368,-0.14709975,-0.0588398999999988,9.8458766
2026-04-18 20:16:00.629,-0.10787315,-0.1274864499999988,9.83606995
2026-04-18 20:16:00.866,-0.1372931,-0.019613299999998793,9.8458766
2026-04-18 20:16:01.126,-0.0980665,-0.0686465499999988,9.80665
2026-04-18 20:16:01.365,-0.10787315,-0.1470997499999988,9.83606995
2026-04-18 20:16:01.628,-0.1372931,-0.1078731499999988,9.8458766
2026-04-18 20:16:01.866,-0.12748645,-0.03922659999999879,9.8458766
2026-04-18 20:16:02.127,-0.10787315,-0.1274864499999988,9.8458766
2026-04-18 20:16:02.367,-0.12748645,-0.1176797999999988,9.8458766
2026-04-18 20:16:02.629,-0.1372931,-0.03922659999999879,9.85568325
2026-04-18 20:16:02.866,-0.12748645,-0.1078731499999988,9.80665
2026-04-18 20:16:03.027,-0.12748645,-0.1078731499999988,9.80665
2026-04-18 20:16:03.227,-0.1372931,-0.0882598499999988,9.8458766
2026-04-18 20:16:03.429,-0.1372931,-0.03922659999999879,9.87529655
2026-04-18 20:16:03.628,-0.1176798,-0.0980664999999988,9.85568325
2026-04-18 20:16:03.828,-0.10787315,-0.1274864499999988,9.8262633
2026-04-18 20:16:04.027,-0.1372931,-0.0392265999999988,9.8262633
2026-04-18 20:16:04.226,-0.1569064,-0.029419949999998793,9.8458766
2026-04-18 20:16:04.428,-0.12748645,-0.1176797999999988,9.8458766
2026-04-18 20:16:04.629,-0.0980665,-0.1274864499999988,9.8262633
2026-04-18 20:16:04.835,-0.0980665,-0.1274864499999988,9.8262633
2026-04-18 20:16:05.031,-0.0980665,-0.1274864499999988,9.8262633
2026-04-18 20:16:05.227,-0.0980665,-0.1274864499999988,9.8262633
2026-04-18 20:16:05.431,-0.0980665,-0.1274864499999988,9.8262633
2026-04-18 20:16:05.630,-0.1176798,-0.0686465499999988,9.83606995
2026-04-18 20:16:05.828,-0.1176798,-0.0686465499999988,9.83606995
2026-04-18 20:16:06.027,-0.1372931,-0.0882598499999988,9.8654899
2026-04-18 20:16:06.227,-0.1569064,-0.08825984999999878,9.89490985
2026-04-18 20:16:06.427,-0.12748645,-0.0686465499999988,9.83606995
2026-04-18 20:16:06.628,-0.0980665,-0.0686465499999988,9.80665
2026-04-18 20:16:06.835,-0.1176798,-0.0882598499999988,9.8458766
2026-04-18 20:16:07.027,-0.1176798,-0.0882598499999988,9.8458766
2026-04-18 20:16:07.226,-0.1372931,-0.0588398999999988,9.83606995
2026-04-18 20:16:07.427,-0.12748645,-0.0784531999999988,9.83606995
2026-04-18 20:16:07.627,-0.1176798,-0.0882598499999988,9.8458766
2026-04-18 20:16:07.828,-0.10787315,-0.0784531999999988,9.81645665
2026-04-18 20:16:08.027,-0.12748645,-0.0686465499999988,9.83606995
2026-04-18 20:16:08.226,-0.1569064,-0.0784531999999988,9.8851032
2026-04-18 20:16:08.428,-0.1372931,-0.0784531999999988,9.8654899
2026-04-18 20:16:08.629,-0.0980665,-0.0686465499999988,9.7870367
2026-04-18 20:16:08.829,-0.10787315,-0.0882598499999988,9.79684335
2026-04-18 20:16:09.026,-0.1569064,-0.0980664999999988,9.8654899
2026-04-18 20:16:09.227,-0.1372931,-0.0686465499999988,9.85568325
2026-04-18 20:16:09.427,-0.0980665,-0.0588398999999988,9.83606995
2026-04-18 20:16:09.628,-0.1176798,-0.0784531999999988,9.85568325
2026-04-18 20:16:09.828,-0.16671305,-0.0980664999999988,9.8458766
2026-04-18 20:16:10.028,-0.14709975,-0.0980664999999988,9.8262633
2026-04-18 20:16:10.226,-0.0980665,-0.0686465499999988,9.8262633
2026-04-18 20:16:10.427,-0.08825985,-0.0588398999999988,9.8458766
2026-04-18 20:16:10.629,-0.14709975,-0.0882598499999988,9.8654899
2026-04-18 20:16:10.831,-0.1765197,-0.0980664999999988,9.87529655
2026-04-18 20:16:11.029,-0.12748645,-0.0882598499999988,9.8262633
2026-04-18 20:16:11.229,-0.08825985,-0.0588398999999988,9.81645665
2026-04-18 20:16:11.429,-0.1176798,-0.0686465499999988,9.8458766
2026-04-18 20:16:11.628,-0.16671305,-0.1078731499999988,9.87529655
2026-04-18 20:16:11.828,-0.14709975,-0.0980664999999988,9.8458766
2026-04-18 20:16:12.032,-0.14709975,-0.0980664999999988,9.8458766
2026-04-18 20:16:12.227,-0.0980665,-0.0490332499999988,9.80665
2026-04-18 20:16:12.429,-0.14709975,-0.0784531999999988,9.8458766
2026-04-18 20:16:12.627,-0.1765197,-0.1176797999999988,9.8654899
2026-04-18 20:16:12.830,-0.12748645,-0.0980664999999988,9.85568325
2026-04-18 20:16:13.026,-0.12748645,-0.0980664999999988,9.85568325
2026-04-18 20:16:13.227,-0.10787315,-0.0490332499999988,9.83606995
2026-04-18 20:16:13.426,-0.1372931,-0.0980664999999988,9.8262633
2026-04-18 20:16:13.628,-0.16671305,-0.0980664999999988,9.85568325
2026-04-18 20:16:13.830,-0.14709975,-0.0686465499999988,9.85568325
2026-04-18 20:16:14.027,-0.14709975,-0.0686465499999988,9.85568325
2026-04-18 20:16:14.227,-0.0784532,-0.0784531999999988,9.81645665
2026-04-18 20:16:14.432,-0.1372931,-0.0980664999999988,9.8458766
2026-04-18 20:16:14.628,-0.196133,-0.1078731499999988,9.8851032
2026-04-18 20:16:14.828,-0.196133,-0.1078731499999988,9.8851032
2026-04-18 20:16:15.027,-0.196133,-0.1078731499999988,9.8851032
2026-04-18 20:16:15.227,-0.0784532,-0.0784531999999988,9.8262633
2026-04-18 20:16:15.428,-0.16671305,-0.1470997499999988,9.87529655
2026-04-18 20:16:15.628,-0.18632635,-0.0882598499999988,9.8654899
2026-04-18 20:16:15.833,-0.1176798,-0.009806649999998796,9.8262633
2026-04-18 20:16:16.028,-0.0784532,-0.0588398999999988,9.81645665
2026-04-18 20:16:16.428,-0.16671305,-0.0980664999999988,9.85568325
2026-04-18 20:16:16.627,-0.14709975,-0.029419949999998793,9.85568325
2026-04-18 20:16:16.830,-0.0980665,-0.0588398999999988,9.83606995
2026-04-18 20:16:17.028,-0.0980665,-0.1274864499999988,9.80665
2026-04-18 20:16:17.227,-0.14709975,-0.1078731499999988,9.8458766
2026-04-18 20:16:17.428,-0.1569064,-0.04903324999999879,9.87529655
2026-04-18 20:16:17.629,-0.12748645,-0.0490332499999988,9.83606995
2026-04-18 20:16:17.830,-0.10787315,-0.0882598499999988,9.8262633
2026-04-18 20:16:18.026,-0.12748645,-0.1078731499999988,9.8654899
2026-04-18 20:16:18.229,-0.1372931,-0.0980664999999988,9.8458766
2026-04-18 20:16:18.428,-0.12748645,-0.0588398999999988,9.81645665
2026-04-18 20:16:18.629,-0.12748645,-0.03922659999999879,9.8458766
2026-04-18 20:16:18.828,-0.1372931,-0.0882598499999988,9.87529655
2026-04-18 20:16:19.024,-0.1372931,-0.1372930999999988,9.85568325
2026-04-18 20:16:19.226,-0.1372931,-0.0882598499999988,9.83606995
2026-04-18 20:16:19.425,-0.1176798,-0.0294199499999988,9.8262633
2026-04-18 20:16:19.628,-0.10787315,-0.0588398999999988,9.8458766
2026-04-18 20:16:19.833,-0.12748645,-0.1176797999999988,9.8458766
2026-04-18 20:16:20.025,-0.1569064,-0.0980664999999988,9.85568325
2026-04-18 20:16:20.226,-0.1569064,-0.0980664999999988,9.85568325
2026-04-18 20:16:20.627,-0.10787315,-0.0784531999999988,9.80665
2026-04-18 20:16:20.829,-0.1569064,-0.0686465499999988,9.8851032
2026-04-18 20:16:21.031,-0.1569064,-0.0686465499999988,9.8851032
2026-04-18 20:16:21.227,-0.1176798,-0.1078731499999988,9.79684335
2026-04-18 20:16:21.428,-0.10787315,-0.0686465499999988,9.83606995
2026-04-18 20:16:21.628,-0.10787315,-0.04903324999999879,9.87529655
2026-04-18 20:16:21.825,-0.12748645,-0.1078731499999988,9.8262633
2026-04-18 20:16:22.028,-0.16671305,-0.0980664999999988,9.85568325
2026-04-18 20:16:22.227,-0.16671305,-0.02941994999999879,9.89490985
2026-04-18 20:16:22.424,-0.0980665,-0.0686465499999988,9.8262633
2026-04-18 20:16:22.627,-0.0784532,-0.1274864499999988,9.79684335
2026-04-18 20:16:22.826,-0.0784532,-0.1274864499999988,9.79684335
2026-04-18 20:16:23.031,-0.1765197,-0.029419949999998793,9.85568325
2026-04-18 20:16:23.228,-0.1372931,-0.0784531999999988,9.8458766
2026-04-18 20:16:23.424,-0.0980665,-0.1274864499999988,9.8458766
2026-04-18 20:16:23.625,-0.10787315,-0.0686465499999988,9.83606995
2026-04-18 20:16:23.826,-0.14709975,-0.029419949999998793,9.83606995
2026-04-18 20:16:24.025,-0.1569064,-0.0980664999999988,9.85568325
2026-04-18 20:16:24.226,-0.12748645,-0.1372930999999988,9.8458766
2026-04-18 20:16:24.426,-0.10787315,-0.0784531999999988,9.8262633
2026-04-18 20:16:24.624,-0.10787315,-0.019613299999998796,9.83606995
2026-04-18 20:16:24.825,-0.1372931,-0.0588398999999988,9.83606995
2026-04-18 20:16:25.026,-0.14709975,-0.1274864499999988,9.83606995
2026-04-18 20:16:25.227,-0.1372931,-0.1176797999999988,9.85568325
2026-04-18 20:16:25.424,-0.12748645,-0.03922659999999879,9.8458766
2026-04-18 20:16:25.624,-0.12748645,-0.03922659999999879,9.83606995
2026-04-18 20:16:25.825,-0.12748645,-0.1078731499999988,9.83606995
2026-04-18 20:16:26.225,-0.1176798,-0.0686465499999988,9.81645665
2026-04-18 20:16:26.425,-0.1176798,-0.029419949999998793,9.8458766
2026-04-18 20:16:26.626,-0.14709975,-0.0784531999999988,9.85568325
2026-04-18 20:16:26.825,-0.1569064,-0.1274864499999988,9.85568325
2026-04-18 20:16:27.024,-0.1176798,-0.0980664999999988,9.8654899
2026-04-18 20:16:27.226,-0.0980665,-0.0490332499999988,9.8458766
2026-04-18 20:16:27.425,-0.12748645,-0.0588398999999988,9.8262633
2026-04-18 20:16:27.625,-0.16671305,-0.0980664999999988,9.83606995
2026-04-18 20:16:27.827,-0.1372931,-0.0980664999999988,9.85568325
2026-04-18 20:16:28.026,-0.10787315,-0.0686465499999988,9.8458766
2026-04-18 20:16:28.229,-0.10787315,-0.0490332499999988,9.8458766
2026-04-18 20:16:28.427,-0.1372931,-0.0882598499999988,9.85568325
2026-04-18 20:16:28.628,-0.14709975,-0.1176797999999988,9.83606995
2026-04-18 20:16:28.826,-0.12748645,-0.0686465499999988,9.8262633
2026-04-18 20:16:29.030,-0.12748645,-0.03922659999999879,9.83606995
2026-04-18 20:16:29.228,-0.1176798,-0.0784531999999988,9.8458766
2026-04-18 20:16:29.426,-0.1176798,-0.0784531999999988,9.8458766
2026-04-18 20:16:29.626,-0.1372931,-0.0784531999999988,9.83606995
2026-04-18 20:16:29.829,-0.14709975,-0.05883989999999879,9.85568325
2026-04-18 20:16:30.025,-0.1372931,-0.0882598499999988,9.85568325
2026-04-18 20:16:30.229,-0.12748645,-0.0980664999999988,9.83606995
2026-04-18 20:16:30.426,-0.10787315,-0.0588398999999988,9.83606995
2026-04-18 20:16:30.630,-0.1176798,-0.0490332499999988,9.8458766
2026-04-18 20:16:30.838,-0.14709975,-0.1078731499999988,9.8458766
2026-04-18 20:16:31.026,-0.14709975,-0.1078731499999988,9.8458766
2026-04-18 20:16:31.228,-0.12748645,-0.0588398999999988,9.8458766
2026-04-18 20:16:31.432,-0.0980665,-0.03922659999999879,9.85568325
2026-04-18 20:16:31.628,-0.10787315,-0.0980664999999988,9.83606995
2026-04-18 20:16:31.828,-0.1372931,-0.1176797999999988,9.81645665
2026-04-18 20:16:32.029,-0.14709975,-0.05883989999999879,9.85568325
2026-04-18 20:16:32.228,-0.14709975,-0.04903324999999879,9.8654899
2026-04-18 20:16:32.429,-0.12748645,-0.0980664999999988,9.83606995
2026-04-18 20:16:32.628,-0.12748645,-0.0980664999999988,9.83606995
2026-04-18 20:16:32.830,-0.0980665,-0.0588398999999988,9.8458766
2026-04-18 20:16:33.029,-0.14709975,-0.04903324999999879,9.85568325
2026-04-18 20:16:33.230,-0.14709975,-0.04903324999999879,9.85568325
2026-04-18 20:16:33.425,-0.14709975,-0.04903324999999879,9.85568325
2026-04-18 20:16:33.625,-0.10787315,-0.0784531999999988,9.81645665
2026-04-18 20:16:33.825,-0.1176798,-0.0588398999999988,9.8458766
2026-04-18 20:16:34.024,-0.14709975,-0.05883989999999879,9.8654899
2026-04-18 20:16:34.225,-0.14709975,-0.0882598499999988,9.87529655
2026-04-18 20:16:34.425,-0.1176798,-0.0980664999999988,9.83606995
2026-04-18 20:16:34.655,-0.10787315,-0.0784531999999988,9.80665
2026-04-18 20:16:34.830,-0.12748645,-0.0490332499999988,9.8458766
2026-04-18 20:16:35.031,-0.14709975,-0.05883989999999879,9.8654899
2026-04-18 20:16:35.226,-0.1372931,-0.1078731499999988,9.85568325
2026-04-18 20:16:35.428,-0.1176798,-0.1176797999999988,9.83606995
2026-04-18 20:16:35.625,-0.1176798,-0.1176797999999988,9.83606995
2026-04-18 20:16:35.829,-0.12748645,-0.009806649999998796,9.8262633
2026-04-18 20:16:36.034,-0.1569064,-0.0980664999999988,9.8458766
2026-04-18 20:16:36.228,-0.1372931,-0.1569063999999988,9.8458766
2026-04-18 20:16:36.435,-0.0980665,-0.0784531999999988,9.8262633
2026-04-18 20:16:36.626,-0.0980665,1.2045711580456967e-15,9.83606995
2026-04-18 20:16:36.826,-0.14709975,-0.04903324999999879,9.8654899
2026-04-18 20:16:37.226,-0.16671305,-0.1372930999999988,9.85568325
2026-04-18 20:16:37.432,-0.10787315,-0.0588398999999988,9.80665
2026-04-18 20:16:37.626,-0.1176798,-0.019613299999998796,9.8262633
2026-04-18 20:16:37.825,-0.1372931,-0.0686465499999988,9.85568325
2026-04-18 20:16:38.024,-0.1372931,-0.0686465499999988,9.85568325
2026-04-18 20:16:38.225,-0.1372931,-0.1176797999999988,9.8262633
2026-04-18 20:16:38.426,-0.14709975,-0.05883989999999879,9.85568325
2026-04-18 20:16:38.629,-0.1176798,-0.03922659999999879,9.8458766
2026-04-18 20:16:38.825,-0.0980665,-0.0882598499999988,9.7870367
2026-04-18 20:16:39.026,-0.0980665,-0.0882598499999988,9.7870367
2026-04-18 20:16:39.226,-0.16671305,-0.0882598499999988,9.87529655
2026-04-18 20:16:39.424,-0.14709975,-0.04903324999999879,9.85568325
2026-04-18 20:16:39.625,-0.10787315,-0.0588398999999988,9.8262633
2026-04-18 20:16:39.824,-0.10787315,-0.0980664999999988,9.8458766
2026-04-18 20:16:40.025,-0.1372931,-0.0882598499999988,9.83606995
2026-04-18 20:16:40.424,-0.1372931,-0.0686465499999988,9.8654899
2026-04-18 20:16:40.624,-0.08825985,-0.1078731499999988,9.83606995
2026-04-18 20:16:40.828,-0.0980665,-0.0882598499999988,9.81645665
2026-04-18 20:16:41.025,-0.0980665,-0.0882598499999988,9.81645665
2026-04-18 20:16:41.224,-0.196133,-0.0784531999999988,9.8851032
2026-04-18 20:16:41.425,-0.196133,-0.0784531999999988,9.8851032
2026-04-18 20:16:41.627,-0.0588399,-0.0686465499999988,9.81645665
2026-04-18 20:16:41.825,-0.10787315,-0.0686465499999988,9.87529655
2026-04-18 20:16:42.027,-0.10787315,-0.0686465499999988,9.87529655
2026-04-18 20:16:42.030,0.0,0.0,0.0
2026-04-18 20:16:42.226,-0.10787315,-0.0686465499999988,9.87529655
2026-04-18 20:16:42.228,0.0,0.0,0.0
2026-04-18 20:16:42.426,-0.10787315,-0.0784531999999988,9.8262633
2026-04-18 20:16:42.434,0.0,0.0,0.0
2026-04-18 20:16:42.626,-0.06864655,-0.0490332499999988,9.81645665
2026-04-18 20:16:42.629,-0.06864655,-0.0490332499999988,9.81645665
2026-04-18 20:16:42.827,-0.1176798,-0.05883989999999879,9.85568325
2026-04-18 20:16:42.830,-0.1176798,-0.05883989999999879,9.85568325
2026-04-18 20:16:43.026,-0.16671305,-0.0980664999999988,9.8654899
2026-04-18 20:16:43.033,-0.16671305,-0.0980664999999988,9.8654899
2026-04-18 20:16:43.226,-0.1569064,-0.1078731499999988,9.8262633
2026-04-18 20:16:43.228,-0.1569064,-0.1078731499999988,9.8262633
2026-04-18 20:16:43.426,-0.10787315,-0.0784531999999988,9.83606995
2026-04-18 20:16:43.429,-0.10787315,-0.0784531999999988,9.83606995
2026-04-18 20:16:43.626,-0.10787315,-0.0784531999999988,9.83606995
2026-04-18 20:16:43.630,-0.10787315,-0.0784531999999988,9.83606995
2026-04-18 20:16:43.826,-0.1372931,-0.0588398999999988,9.8262633
2026-04-18 20:16:43.828,-0.1372931,-0.0588398999999988,9.8262633
2026-04-18 20:16:44.026,-0.16671305,-0.0784531999999988,9.8262633
2026-04-18 20:16:44.029,-0.16671305,-0.0784531999999988,9.8262633
2026-04-18 20:16:44.226,-0.14709975,-0.1078731499999988,9.8458766
2026-04-18 20:16:44.233,-0.14709975,-0.1078731499999988,9.8458766
2026-04-18 20:16:44.426,-0.1176798,-0.0882598499999988,9.8458766
2026-04-18 20:16:44.430,-0.1176798,-0.0882598499999988,9.8458766
2026-04-18 20:16:44.627,-0.1176798,-0.0490332499999988,9.8458766
2026-04-18 20:16:44.630,-0.1176798,-0.0490332499999988,9.8458766
2026-04-18 20:16:44.827,-0.1176798,-0.0588398999999988,9.83606995
2026-04-18 20:16:44.832,-0.1176798,-0.0588398999999988,9.83606995
2026-04-18 20:16:45.026,-0.1176798,-0.1176797999999988,9.81645665
2026-04-18 20:16:45.028,-0.1176798,-0.1176797999999988,9.81645665
2026-04-18 20:16:45.226,-0.14709975,-0.0980664999999988,9.83606995
2026-04-18 20:16:45.229,-0.14709975,-0.0980664999999988,9.83606995
2026-04-18 20:16:45.427,-0.1569064,-0.03922659999999879,9.87529655
2026-04-18 20:16:45.429,-0.1569064,-0.03922659999999879,9.87529655
2026-04-18 20:16:45.628,-0.1569064,-0.03922659999999879,9.87529655
2026-04-18 20:16:45.633,-0.1569064,-0.03922659999999879,9.87529655
2026-04-18 20:16:45.828,-0.0980665,-0.1274864499999988,9.8458766
2026-04-18 20:16:45.841,-0.0980665,-0.1274864499999988,9.8458766
2026-04-18 20:16:46.032,-0.1372931,-0.0784531999999988,9.85568325
2026-04-18 20:16:46.036,-0.1372931,-0.0784531999999988,9.85568325
2026-04-18 20:16:46.228,-0.1569064,-0.03922659999999879,9.85568325
2026-04-18 20:16:46.234,-0.1569064,-0.03922659999999879,9.85568325
2026-04-18 20:16:46.428,-0.12748645,-0.0882598499999988,9.83606995
2026-04-18 20:16:46.434,-0.12748645,-0.0882598499999988,9.83606995
2026-04-18 20:16:46.628,-0.10787315,-0.0980664999999988,9.8262633
2026-04-18 20:16:46.632,-0.10787315,-0.0980664999999988,9.8262633
2026-04-18 20:16:46.830,-0.12748645,-0.0784531999999988,9.83606995
2026-04-18 20:16:46.835,-0.12748645,-0.0784531999999988,9.83606995
2026-04-18 20:16:47.029,-0.1372931,-0.0686465499999988,9.8458766
2026-04-18 20:16:47.035,-0.1372931,-0.0686465499999988,9.8458766
2026-04-18 20:16:47.229,-0.12748645,-0.0686465499999988,9.8458766
2026-04-18 20:16:47.233,-0.12748645,-0.0686465499999988,9.8458766
2026-04-18 20:16:47.426,-0.1372931,-0.0784531999999988,9.85568325
2026-04-18 20:16:47.429,-0.1372931,-0.0784531999999988,9.85568325
2026-04-18 20:16:47.629,-0.14709975,-0.0882598499999988,9.85568325
2026-04-18 20:16:47.635,-0.14709975,-0.0882598499999988,9.85568325
2026-04-18 20:16:47.829,-0.1176798,-0.0784531999999988,9.81645665
2026-04-18 20:16:47.841,-0.1176798,-0.0784531999999988,9.81645665
2026-04-18 20:16:48.029,-0.1176798,-0.0784531999999988,9.81645665
2026-04-18 20:16:48.041,-0.1176798,-0.0784531999999988,9.81645665
2026-04-18 20:16:48.233,-0.12748645,-0.0784531999999988,9.87529655
2026-04-18 20:16:48.250,-0.12748645,-0.0784531999999988,9.87529655
2026-04-18 20:16:48.640,-0.1569064,-0.0686465499999988,9.8851032
2026-04-18 20:16:48.644,-0.1569064,-0.0686465499999988,9.8851032
2026-04-18 20:16:48.828,-0.1569064,-0.0686465499999988,9.8851032
2026-04-18 20:16:48.836,-0.1569064,-0.0686465499999988,9.8851032
2026-04-18 20:16:49.035,-0.1176798,-0.0784531999999988,9.81645665
2026-04-18 20:16:49.040,-0.1176798,-0.0784531999999988,9.81645665
2026-04-18 20:16:49.229,-0.14709975,-0.0784531999999988,9.8458766
2026-04-18 20:16:49.235,-0.14709975,-0.0784531999999988,9.8458766
2026-04-18 20:16:49.429,-0.12748645,-0.0882598499999988,9.8654899
2026-04-18 20:16:49.434,-0.12748645,-0.0882598499999988,9.8654899
2026-04-18 20:16:49.629,-0.1176798,-0.0686465499999988,9.8458766
2026-04-18 20:16:49.634,-0.1176798,-0.0686465499999988,9.8458766
2026-04-18 20:16:49.830,-0.1176798,-0.0686465499999988,9.8262633
2026-04-18 20:16:49.840,-0.1176798,-0.0686465499999988,9.8262633
2026-04-18 20:16:50.029,-0.14709975,-0.0980664999999988,9.83606995
2026-04-18 20:16:50.037,-0.14709975,-0.0980664999999988,9.83606995
2026-04-18 20:16:50.228,-0.1569064,-0.0882598499999988,9.85568325
2026-04-18 20:16:50.232,-0.1569064,-0.0882598499999988,9.85568325
2026-04-18 20:16:50.428,-0.12748645,-0.0686465499999988,9.8458766
2026-04-18 20:16:50.434,-0.12748645,-0.0686465499999988,9.8458766
2026-04-18 20:16:50.629,-0.1176798,-0.0588398999999988,9.83606995
2026-04-18 20:16:50.634,-0.1176798,-0.0588398999999988,9.83606995
2026-04-18 20:16:50.829,-0.12748645,-0.0882598499999988,9.85568325
2026-04-18 20:16:50.834,-0.12748645,-0.0882598499999988,9.85568325
2026-04-18 20:16:51.028,-0.1372931,-0.1078731499999988,9.8458766
2026-04-18 20:16:51.032,-0.1372931,-0.1078731499999988,9.8458766
2026-04-18 20:16:51.236,-0.1372931,-0.0686465499999988,9.81645665
2026-04-18 20:16:51.239,-0.1372931,-0.0686465499999988,9.81645665
2026-04-18 20:16:51.428,-0.12748645,-0.0588398999999988,9.83606995
2026-04-18 20:16:51.432,-0.12748645,-0.0588398999999988,9.83606995
2026-04-18 20:16:51.629,-0.1176798,-0.0980664999999988,9.8458766
2026-04-18 20:16:51.633,-0.1176798,-0.0980664999999988,9.8458766
2026-04-18 20:16:52.029,-0.1176798,-0.0980664999999988,9.8458766
2026-04-18 20:16:52.035,-0.1176798,-0.0980664999999988,9.8458766
2026-04-18 20:16:52.228,-0.14709975,-0.0490332499999988,9.8458766
2026-04-18 20:16:52.243,-0.14709975,-0.0490332499999988,9.8458766
2026-04-18 20:16:53.776,-0.12748645,-0.1078731499999988,9.80665
2026-04-18 20:16:54.044,-0.12748645,-0.1078731499999988,9.80665
2026-04-18 20:16:55.468,-0.14709975,-0.0980664999999988,9.8458766
2026-04-18 20:16:55.752,-0.14709975,-0.0980664999999988,9.8458766
2026-04-18 20:16:56.107,-0.1372931,-0.0882598499999988,9.83606995
2026-04-18 20:16:56.355,-0.1372931,-0.0882598499999988,9.83606995
2026-04-18 20:16:56.549,-0.1372931,-0.0882598499999988,9.83606995
2026-04-18 20:16:56.813,-0.1372931,-0.0882598499999988,9.83606995
2026-04-18 20:16:57.024,-0.12748645,-0.0980664999999988,9.83606995
2026-04-18 20:16:57.283,-0.12748645,-0.0980664999999988,9.83606995
2026-04-18 20:16:57.443,-0.16671305,-0.0686465499999988,9.8654899
2026-04-18 20:16:57.455,-0.0980665,-0.0980664999999988,9.79684335
2026-04-18 20:16:57.473,-0.08825985,-0.0882598499999988,9.80665
2026-04-18 20:16:57.481,-0.08825985,-0.0882598499999988,9.80665
2026-04-18 20:16:57.483,-0.1569064,-0.0686465499999988,9.85568325
2026-04-18 20:16:57.625,-0.18632635,-0.1078731499999988,9.8654899
2026-04-18 20:16:57.645,-0.16671305,-0.0686465499999988,9.8654899
2026-04-18 20:16:57.647,-0.0980665,-0.0980664999999988,9.79684335
2026-04-18 20:16:57.652,-0.08825985,-0.0882598499999988,9.80665
2026-04-18 20:16:57.659,-0.08825985,-0.0882598499999988,9.80665
2026-04-18 20:16:57.666,-0.1569064,-0.0686465499999988,9.85568325
2026-04-18 20:16:57.674,-0.18632635,-0.1078731499999988,9.8654899
2026-04-18 20:16:57.826,-0.0784532,-0.0490332499999988,9.81645665
2026-04-18 20:16:57.827,-0.0784532,-0.0490332499999988,9.81645665
2026-04-18 20:16:58.028,-0.10787315,-0.0392265999999988,9.79684335
2026-04-18 20:16:58.035,-0.10787315,-0.0392265999999988,9.79684335
2026-04-18 20:16:58.227,-0.10787315,-0.0392265999999988,9.79684335
2026-04-18 20:16:58.232,-0.10787315,-0.0392265999999988,9.79684335
2026-04-18 20:16:58.425,-0.16671305,-0.1372930999999988,9.87529655
2026-04-18 20:16:58.426,-0.16671305,-0.1372930999999988,9.87529655
2026-04-18 20:16:58.825,-0.0980665,-0.0686465499999988,9.80665
2026-04-18 20:16:58.828,-0.0980665,-0.0686465499999988,9.80665
2026-04-18 20:16:59.025,-0.1372931,-0.0784531999999988,9.8654899
2026-04-18 20:16:59.027,-0.1372931,-0.0784531999999988,9.8654899
2026-04-18 20:16:59.226,-0.16671305,-0.1372930999999988,9.85568325
2026-04-18 20:16:59.235,-0.16671305,-0.1372930999999988,9.85568325
2026-04-18 20:16:59.426,-0.1372931,-0.0980664999999988,9.8458766
2026-04-18 20:16:59.431,-0.1372931,-0.0980664999999988,9.8458766
2026-04-18 20:16:59.626,-0.0980665,-0.029419949999998793,9.8654899
2026-04-18 20:16:59.630,-0.0980665,-0.029419949999998793,9.8654899
2026-04-18 20:16:59.825,-0.0980665,-0.0588398999999988,9.8262633
2026-04-18 20:16:59.829,-0.0980665,-0.0588398999999988,9.8262633
2026-04-18 20:17:00.029,-0.1372931,-0.0980664999999988,9.81645665
2026-04-18 20:17:00.037,-0.1372931,-0.0980664999999988,9.81645665
2026-04-18 20:17:00.228,-0.1372931,-0.0980664999999988,9.81645665
2026-04-18 20:17:00.236,-0.1372931,-0.0980664999999988,9.81645665
2026-04-18 20:17:00.432,-0.14709975,-0.0784531999999988,9.85568325
2026-04-18 20:17:00.437,-0.14709975,-0.0784531999999988,9.85568325
2026-04-18 20:17:00.627,-0.10787315,-0.0588398999999988,9.8458766
2026-04-18 20:17:00.631,-0.10787315,-0.0588398999999988,9.8458766
2026-04-18 20:17:01.030,-0.14709975,-0.0882598499999988,9.8458766
2026-04-18 20:17:01.033,-0.14709975,-0.0882598499999988,9.8458766
2026-04-18 20:17:01.227,-0.16671305,-0.0980664999999988,9.8262633
2026-04-18 20:17:01.237,-0.16671305,-0.0980664999999988,9.8262633
2026-04-18 20:17:01.627,-0.08825985,-0.0686465499999988,9.85568325
2026-04-18 20:17:01.630,-0.08825985,-0.0686465499999988,9.85568325
2026-04-18 20:17:01.825,-0.10787315,-0.0784531999999988,9.8458766
2026-04-18 20:17:01.833,-0.10787315,-0.0784531999999988,9.8458766
2026-04-18 20:17:02.024,-0.1569064,-0.0686465499999988,9.85568325
2026-04-18 20:17:02.025,-0.1569064,-0.0686465499999988,9.85568325
2026-04-18 20:17:02.230,-0.16671305,-0.0686465499999988,9.8654899
2026-04-18 20:17:02.232,-0.16671305,-0.0686465499999988,9.8654899
2026-04-18 20:17:02.424,-0.1176798,-0.1078731499999988,9.83606995
2026-04-18 20:17:02.429,-0.1176798,-0.1078731499999988,9.83606995
2026-04-18 20:17:02.625,-0.08825985,-0.0882598499999988,9.81645665
2026-04-18 20:17:02.627,-0.08825985,-0.0882598499999988,9.81645665
2026-04-18 20:17:02.825,-0.1176798,-0.04903324999999879,9.85568325
2026-04-18 20:17:02.837,-0.1176798,-0.04903324999999879,9.85568325
2026-04-18 20:17:03.026,-0.1372931,-0.05883989999999879,9.8654899
2026-04-18 20:17:03.037,-0.1372931,-0.05883989999999879,9.8654899
2026-04-18 20:17:03.226,-0.14709975,-0.1078731499999988,9.8458766
2026-04-18 20:17:03.228,-0.14709975,-0.1078731499999988,9.8458766
2026-04-18 20:17:03.425,-0.1372931,-0.0980664999999988,9.83606995
2026-04-18 20:17:03.430,-0.1372931,-0.0980664999999988,9.83606995
2026-04-18 20:17:03.625,-0.12748645,-0.05883989999999879,9.85568325
2026-04-18 20:17:03.629,-0.12748645,-0.05883989999999879,9.85568325
2026-04-18 20:17:03.826,-0.12748645,-0.0588398999999988,9.8458766
2026-04-18 20:17:03.828,-0.12748645,-0.0588398999999988,9.8458766
2026-04-18 20:17:04.030,-0.1176798,-0.0882598499999988,9.8262633
2026-04-18 20:17:04.033,-0.1176798,-0.0882598499999988,9.8262633
2026-04-18 20:17:04.226,-0.1176798,-0.1176797999999988,9.8262633
2026-04-18 20:17:04.228,-0.1176798,-0.1176797999999988,9.8262633
2026-04-18 20:17:04.426,-0.1176798,-0.1176797999999988,9.8262633
2026-04-18 20:17:04.429,-0.1176798,-0.1176797999999988,9.8262633
2026-04-18 20:17:04.626,-0.1372931,-0.02941994999999879,9.8851032
2026-04-18 20:17:04.631,-0.1372931,-0.02941994999999879,9.8851032
2026-04-18 20:17:04.826,-0.1372931,-0.02941994999999879,9.8851032
2026-04-18 20:17:04.828,-0.1372931,-0.02941994999999879,9.8851032
2026-04-18 20:17:05.026,-0.1372931,-0.02941994999999879,9.8851032
2026-04-18 20:17:05.028,-0.1372931,-0.02941994999999879,9.8851032
2026-04-18 20:17:05.226,-0.12748645,-0.0882598499999988,9.8262633
2026-04-18 20:17:05.229,-0.12748645,-0.0882598499999988,9.8262633
2026-04-18 20:17:05.626,-0.1372931,-0.0490332499999988,9.83606995
2026-04-18 20:17:05.632,-0.1372931,-0.0490332499999988,9.83606995
2026-04-18 20:17:05.826,-0.1176798,-0.0980664999999988,9.83606995
2026-04-18 20:17:05.828,-0.1176798,-0.0980664999999988,9.83606995
2026-04-18 20:17:06.025,-0.12748645,-0.0980664999999988,9.83606995
2026-04-18 20:17:06.029,-0.12748645,-0.0980664999999988,9.83606995
2026-04-18 20:17:06.225,-0.14709975,-0.0686465499999988,9.85568325
2026-04-18 20:17:06.231,-0.14709975,-0.0686465499999988,9.85568325
2026-04-18 20:17:06.427,-0.14709975,-0.04903324999999879,9.8851032
2026-04-18 20:17:06.430,-0.14709975,-0.04903324999999879,9.8851032
2026-04-18 20:17:06.624,-0.10787315,-0.0686465499999988,9.83606995
2026-04-18 20:17:06.626,-0.10787315,-0.0686465499999988,9.83606995
2026-04-18 20:17:06.835,-0.0980665,-0.1078731499999988,9.80665
2026-04-18 20:17:06.841,-0.0980665,-0.1078731499999988,9.80665
2026-04-18 20:17:07.027,-0.1569064,-0.0980664999999988,9.83606995
2026-04-18 20:17:07.031,-0.1569064,-0.0980664999999988,9.83606995
2026-04-18 20:17:07.225,-0.1569064,-0.0980664999999988,9.83606995
2026-04-18 20:17:07.227,-0.1569064,-0.0980664999999988,9.83606995
2026-04-18 20:17:07.425,-0.12748645,-0.0588398999999988,9.8262633
2026-04-18 20:17:07.429,-0.12748645,-0.0588398999999988,9.8262633
2026-04-18 20:17:07.625,-0.12748645,-0.0588398999999988,9.8262633
2026-04-18 20:17:07.627,-0.12748645,-0.0588398999999988,9.8262633
2026-04-18 20:17:07.829,-0.1176798,-0.0980664999999988,9.85568325
2026-04-18 20:17:07.831,-0.1176798,-0.0980664999999988,9.85568325
2026-04-18 20:17:08.024,-0.14709975,-0.04903324999999879,9.85568325
2026-04-18 20:17:08.025,-0.14709975,-0.04903324999999879,9.85568325
2026-04-18 20:17:08.225,-0.1372931,-0.0490332499999988,9.8458766
2026-04-18 20:17:08.227,-0.1372931,-0.0490332499999988,9.8458766
2026-04-18 20:17:08.424,-0.12748645,-0.0980664999999988,9.8262633
2026-04-18 20:17:08.426,-0.12748645,-0.0980664999999988,9.8262633
2026-04-18 20:17:08.825,-0.1176798,-0.0686465499999988,9.8262633
2026-04-18 20:17:08.828,-0.1176798,-0.0686465499999988,9.8262633
2026-04-18 20:17:09.025,-0.1372931,-0.0686465499999988,9.8458766
2026-04-18 20:17:09.029,-0.1372931,-0.0686465499999988,9.8458766
2026-04-18 20:17:09.226,-0.14709975,-0.0882598499999988,9.85568325
2026-04-18 20:17:09.228,-0.14709975,-0.0882598499999988,9.85568325
2026-04-18 20:17:09.425,-0.1372931,-0.0588398999999988,9.8458766
2026-04-18 20:17:09.427,-0.1372931,-0.0588398999999988,9.8458766
2026-04-18 20:17:09.825,-0.1176798,-0.1078731499999988,9.83606995
2026-04-18 20:17:09.836,-0.1176798,-0.1078731499999988,9.83606995
2026-04-18 20:17:10.026,-0.14709975,-0.1176797999999988,9.8458766
2026-04-18 20:17:10.028,-0.14709975,-0.1176797999999988,9.8458766
2026-04-18 20:17:10.225,-0.14709975,-0.1176797999999988,9.8458766
2026-04-18 20:17:10.231,-0.14709975,-0.1176797999999988,9.8458766
2026-04-18 20:17:10.428,-0.10787315,-0.03922659999999879,9.83606995
2026-04-18 20:17:10.431,-0.10787315,-0.03922659999999879,9.83606995
2026-04-18 20:17:10.626,-0.0980665,-0.0980664999999988,9.8262633
2026-04-18 20:17:10.630,-0.0980665,-0.0980664999999988,9.8262633
2026-04-18 20:17:10.825,-0.14709975,-0.1078731499999988,9.85568325
2026-04-18 20:17:10.828,-0.14709975,-0.1078731499999988,9.85568325
2026-04-18 20:17:11.029,-0.1765197,-0.05883989999999879,9.87529655
2026-04-18 20:17:11.032,-0.1765197,-0.05883989999999879,9.87529655
2026-04-18 20:17:11.225,-0.1372931,-0.0588398999999988,9.83606995
2026-04-18 20:17:11.227,-0.1372931,-0.0588398999999988,9.83606995
2026-04-18 20:17:11.426,-0.08825985,-0.0980664999999988,9.81645665
2026-04-18 20:17:11.429,-0.08825985,-0.0980664999999988,9.81645665
2026-04-18 20:17:11.630,-0.0980665,-0.0980664999999988,9.8262633
2026-04-18 20:17:11.646,-0.0980665,-0.0980664999999988,9.8262633
2026-04-18 20:17:11.828,-0.0980665,-0.0980664999999988,9.8262633
2026-04-18 20:17:11.838,-0.0980665,-0.0980664999999988,9.8262633
2026-04-18 20:17:12.035,-0.0980665,-0.0980664999999988,9.8262633
2026-04-18 20:17:12.045,-0.0980665,-0.0980664999999988,9.8262633
2026-04-18 20:17:12.233,-0.1372931,-0.0882598499999988,9.8654899
2026-04-18 20:17:12.239,-0.1372931,-0.0882598499999988,9.8654899
2026-04-18 20:17:12.428,-0.1372931,-0.0882598499999988,9.8654899
2026-04-18 20:17:12.434,-0.1372931,-0.0882598499999988,9.8654899
2026-04-18 20:17:12.626,-0.0980665,-0.0686465499999988,9.8262633
2026-04-18 20:17:12.629,-0.0980665,-0.0686465499999988,9.8262633
2026-04-18 20:17:12.829,-0.1372931,-0.0588398999999988,9.8458766
2026-04-18 20:17:12.839,-0.1372931,-0.0588398999999988,9.8458766
2026-04-18 20:17:13.029,-0.1569064,-0.0882598499999988,9.8654899
2026-04-18 20:17:13.038,-0.1569064,-0.0882598499999988,9.8654899
2026-04-18 20:17:13.228,-0.1372931,-0.1078731499999988,9.85568325
2026-04-18 20:17:13.257,-0.1372931,-0.1078731499999988,9.85568325
2026-04-18 20:17:13.429,-0.10787315,-0.0686465499999988,9.8458766
2026-04-18 20:17:13.434,-0.10787315,-0.0686465499999988,9.8458766
2026-04-18 20:17:13.628,-0.10787315,-0.0686465499999988,9.8458766
2026-04-18 20:17:13.632,-0.10787315,-0.0686465499999988,9.8458766
2026-04-18 20:17:13.829,-0.14709975,-0.0784531999999988,9.8458766
2026-04-18 20:17:13.840,-0.14709975,-0.0784531999999988,9.8458766
2026-04-18 20:17:14.034,-0.1569064,-0.0980664999999988,9.83606995
2026-04-18 20:17:14.041,-0.1569064,-0.0980664999999988,9.83606995
2026-04-18 20:17:14.239,-0.12748645,-0.0980664999999988,9.8458766
2026-04-18 20:17:14.242,-0.12748645,-0.0980664999999988,9.8458766
2026-04-18 20:17:14.428,-0.10787315,-0.0686465499999988,9.85568325
2026-04-18 20:17:14.434,-0.10787315,-0.0686465499999988,9.85568325
2026-04-18 20:17:14.656,-0.12748645,-0.0490332499999988,9.8458766
2026-04-18 20:17:14.667,-0.12748645,-0.0490332499999988,9.8458766
2026-04-18 20:17:14.827,-0.1372931,-0.0784531999999988,9.83606995
2026-04-18 20:17:14.829,-0.1372931,-0.0784531999999988,9.83606995
2026-04-18 20:17:15.030,-0.12748645,-0.0980664999999988,9.8458766
2026-04-18 20:17:15.034,-0.12748645,-0.0980664999999988,9.8458766
2026-04-18 20:17:15.236,-0.12748645,-0.0784531999999988,9.8458766
2026-04-18 20:17:15.251,-0.12748645,-0.0784531999999988,9.8458766
2026-04-18 20:17:15.431,-0.12748645,-0.0784531999999988,9.8458766
2026-04-18 20:17:15.437,-0.12748645,-0.0784531999999988,9.8458766
2026-04-18 20:17:15.628,-0.1372931,-0.0882598499999988,9.8262633
2026-04-18 20:17:15.644,-0.1372931,-0.0882598499999988,9.8262633
2026-04-18 20:17:15.829,-0.12748645,-0.0686465499999988,9.83606995
2026-04-18 20:17:15.833,-0.12748645,-0.0686465499999988,9.83606995
2026-04-18 20:17:16.029,-0.1176798,-0.0686465499999988,9.85568325
2026-04-18 20:17:16.039,-0.1176798,-0.0686465499999988,9.85568325
2026-04-18 20:17:16.238,-0.12748645,-0.0882598499999988,9.8458766
2026-04-18 20:17:16.246,-0.12748645,-0.0882598499999988,9.8458766
2026-04-18 20:17:16.429,-0.12748645,-0.0980664999999988,9.8458766
2026-04-18 20:17:16.434,-0.12748645,-0.0980664999999988,9.8458766
2026-04-18 20:17:16.625,-0.14709975,-0.0784531999999988,9.85568325
2026-04-18 20:17:16.637,-0.14709975,-0.0784531999999988,9.85568325
2026-04-18 20:17:16.833,-0.1372931,-0.0686465499999988,9.8458766
2026-04-18 20:17:16.846,-0.1372931,-0.0686465499999988,9.8458766
2026-04-18 20:17:17.031,-0.10787315,-0.0784531999999988,9.8458766
2026-04-18 20:17:17.034,-0.10787315,-0.0784531999999988,9.8458766
2026-04-18 20:17:17.230,-0.10787315,-0.0784531999999988,9.8458766
2026-04-18 20:17:17.241,-0.10787315,-0.0784531999999988,9.8458766
2026-04-18 20:17:17.624,-0.14709975,-0.0588398999999988,9.83606995
2026-04-18 20:17:17.629,-0.14709975,-0.0588398999999988,9.83606995
2026-04-18 20:17:17.830,-0.12748645,-0.05883989999999879,9.8654899
2026-04-18 20:17:17.832,-0.12748645,-0.05883989999999879,9.8654899
2026-04-18 20:17:18.024,-0.1176798,-0.0980664999999988,9.83606995
2026-04-18 20:17:18.025,-0.1176798,-0.0980664999999988,9.83606995
2026-04-18 20:17:18.229,-0.1176798,-0.1176797999999988,9.81645665
2026-04-18 20:17:18.237,-0.1176798,-0.1176797999999988,9.81645665
2026-04-18 20:17:18.431,-0.1569064,-0.0784531999999988,9.85568325
2026-04-18 20:17:18.436,-0.1569064,-0.0784531999999988,9.85568325
2026-04-18 20:17:18.625,-0.14709975,-0.029419949999998793,9.8654899
2026-04-18 20:17:18.628,-0.14709975,-0.029419949999998793,9.8654899
2026-04-18 20:17:18.825,-0.14709975,-0.029419949999998793,9.8654899
2026-04-18 20:17:18.826,-0.14709975,-0.029419949999998793,9.8654899
2026-04-18 20:17:19.025,-0.1176798,-0.1274864499999988,9.81645665
2026-04-18 20:17:19.028,-0.1176798,-0.1274864499999988,9.81645665
2026-04-18 20:17:19.224,-0.1372931,-0.1176797999999988,9.8458766
2026-04-18 20:17:19.225,-0.1372931,-0.1176797999999988,9.8458766
2026-04-18 20:17:19.426,-0.14709975,-0.03922659999999879,9.8654899
2026-04-18 20:17:19.434,-0.14709975,-0.03922659999999879,9.8654899
2026-04-18 20:17:19.627,-0.1372931,-0.04903324999999879,9.8654899
2026-04-18 20:17:19.634,-0.1372931,-0.04903324999999879,9.8654899
2026-04-18 20:17:19.825,-0.10787315,-0.1078731499999988,9.8458766
2026-04-18 20:17:19.828,-0.10787315,-0.1078731499999988,9.8458766
2026-04-18 20:17:20.024,-0.10787315,-0.1078731499999988,9.79684335
2026-04-18 20:17:20.031,-0.10787315,-0.1078731499999988,9.79684335
2026-04-18 20:17:20.224,-0.1372931,-0.0490332499999988,9.81645665
2026-04-18 20:17:20.227,-0.1372931,-0.0490332499999988,9.81645665
2026-04-18 20:17:20.424,-0.16671305,-0.04903324999999879,9.8654899
2026-04-18 20:17:20.434,-0.16671305,-0.04903324999999879,9.8654899
2026-04-18 20:17:21.025,-0.1372931,-0.0980664999999988,9.85568325
2026-04-18 20:17:21.029,-0.1372931,-0.0980664999999988,9.85568325
2026-04-18 20:17:21.224,-0.1765197,-0.05883989999999879,9.85568325
2026-04-18 20:17:21.226,-0.1765197,-0.05883989999999879,9.85568325
2026-04-18 20:17:21.425,-0.16671305,-0.0784531999999988,9.87529655
2026-04-18 20:17:21.435,-0.16671305,-0.0784531999999988,9.87529655
2026-04-18 20:17:21.624,-0.0980665,-0.0784531999999988,9.8262633
2026-04-18 20:17:21.631,-0.0980665,-0.0784531999999988,9.8262633
2026-04-18 20:17:22.027,-0.1372931,-0.0882598499999988,9.85568325
2026-04-18 20:17:22.029,-0.1372931,-0.0882598499999988,9.85568325
2026-04-18 20:17:22.231,-0.1569064,-0.0784531999999988,9.8458766
2026-04-18 20:17:22.233,-0.1569064,-0.0784531999999988,9.8458766
2026-04-18 20:17:22.424,-0.1372931,-0.0490332499999988,9.83606995
2026-04-18 20:17:22.427,-0.1372931,-0.0490332499999988,9.83606995
2026-04-18 20:17:22.625,-0.12748645,-0.0784531999999988,9.85568325
2026-04-18 20:17:22.626,-0.12748645,-0.0784531999999988,9.85568325
2026-04-18 20:17:22.825,-0.12748645,-0.0980664999999988,9.83606995
2026-04-18 20:17:22.836,-0.12748645,-0.0980664999999988,9.83606995
2026-04-18 20:17:23.025,-0.12748645,-0.0980664999999988,9.83606995
2026-04-18 20:17:23.030,-0.12748645,-0.0980664999999988,9.83606995
2026-04-18 20:17:23.225,-0.12748645,-0.0686465499999988,9.85568325
2026-04-18 20:17:23.227,-0.12748645,-0.0686465499999988,9.85568325
2026-04-18 20:17:23.430,-0.12748645,-0.0686465499999988,9.85568325
2026-04-18 20:17:23.431,-0.12748645,-0.0686465499999988,9.85568325
2026-04-18 20:17:23.627,-0.1372931,-0.0882598499999988,9.87529655
2026-04-18 20:17:23.629,-0.1372931,-0.0882598499999988,9.87529655
2026-04-18 20:17:23.824,-0.14709975,-0.0784531999999988,9.8458766
2026-04-18 20:17:23.827,-0.14709975,-0.0784531999999988,9.8458766
2026-04-18 20:17:24.025,-0.12748645,-0.0686465499999988,9.79684335
2026-04-18 20:17:24.027,-0.12748645,-0.0686465499999988,9.79684335
2026-04-18 20:17:24.224,-0.1176798,-0.0784531999999988,9.7870367
2026-04-18 20:17:24.226,-0.1176798,-0.0784531999999988,9.7870367
2026-04-18 20:17:24.426,-0.1372931,-0.0980664999999988,9.8654899
2026-04-18 20:17:24.428,-0.1372931,-0.0980664999999988,9.8654899
2026-04-18 20:17:24.624,-0.1372931,-0.08825984999999878,9.89490985
2026-04-18 20:17:24.628,-0.1372931,-0.08825984999999878,9.89490985
2026-04-18 20:17:24.825,-0.12748645,-0.0686465499999988,9.85568325
2026-04-18 20:17:25.026,-0.12748645,-0.0686465499999988,9.85568325
2026-04-18 20:17:25.228,-0.12748645,-0.0686465499999988,9.80665
2026-04-18 20:17:25.430,-0.12748645,-0.0686465499999988,9.80665
2026-04-18 20:17:25.825,-0.1372931,-0.0490332499999988,9.8458766
2026-04-18 20:17:26.026,-0.1372931,-0.0490332499999988,9.8458766
2026-04-18 20:17:26.428,-0.12748645,-0.0980664999999988,9.8262633
2026-04-18 20:17:26.630,-0.12748645,-0.0686465499999988,9.8654899
2026-04-18 20:17:26.826,-0.12748645,-0.0686465499999988,9.8654899
2026-04-18 20:17:27.028,-0.12748645,-0.0686465499999988,9.8654899
2026-04-18 20:17:27.427,-0.12748645,-0.0686465499999988,9.87529655
2026-04-18 20:17:27.665,-0.12748645,-0.0784531999999988,9.81645665
2026-04-18 20:17:27.929,-0.1372931,-0.1078731499999988,9.81645665
2026-04-18 20:17:28.165,-0.1372931,-0.0882598499999988,9.83606995
2026-04-18 20:17:28.424,-0.1372931,-0.05883989999999879,9.8654899
2026-04-18 20:17:28.664,-0.1176798,-0.0882598499999988,9.8262633
2026-04-18 20:17:28.926,-0.1176798,-0.0882598499999988,9.8262633
2026-04-18 20:17:29.164,-0.1176798,-0.0882598499999988,9.8262633
2026-04-18 20:17:29.424,-0.1372931,-0.05883989999999879,9.85568325
2026-04-18 20:17:29.664,-0.1176798,-0.0882598499999988,9.83606995
2026-04-18 20:17:29.924,-0.16671305,-0.0686465499999988,9.87529655
2026-04-18 20:17:30.164,-0.1569064,-0.0882598499999988,9.8654899
2026-04-18 20:17:30.425,-0.10787315,-0.0980664999999988,9.8262633
2026-04-18 20:17:30.664,-0.1176798,-0.0588398999999988,9.8458766
2026-04-18 20:17:30.925,-0.1765197,-0.0784531999999988,9.8851032
2026-04-18 20:17:31.164,-0.16671305,-0.10787314999999878,9.89490985
2026-04-18 20:17:31.427,-0.0980665,-0.0980664999999988,9.79684335
2026-04-18 20:17:31.664,-0.14709975,-0.04903324999999879,9.87529655
2026-04-18 20:17:31.924,-0.18632635,-0.1078731499999988,9.8654899
2026-04-18 20:17:32.164,-0.1372931,-0.1078731499999988,9.8262633
2026-04-18 20:17:32.424,-0.0784532,-0.0588398999999988,9.83606995
2026-04-18 20:17:32.666,-0.1765197,-0.1078731499999988,9.85568325
2026-04-18 20:17:32.925,-0.18632635,-0.1176797999999988,9.8654899
2026-04-18 20:17:33.225,-0.1176798,-0.0490332499999988,9.81645665
2026-04-18 20:17:33.425,-0.06864655,-0.0392265999999988,9.79684335
2026-04-18 20:17:33.624,-0.12748645,-0.1078731499999988,9.8654899
2026-04-18 20:17:33.826,-0.16671305,-0.1078731499999988,9.8851032
2026-04-18 20:17:34.024,0.30400615,-0.03922659999999879,9.87529655
2026-04-18 20:17:34.225,0.48052585000000003,-0.058839899999998814,9.639936950000001
2026-04-18 20:17:34.424,0.34323275,-0.0882598499999988,9.8851032
2026-04-18 20:17:34.627,0.10787315,-0.06864654999999878,9.9439431
2026-04-18 20:17:34.825,0.0588399,-0.03922659999999879,9.85568325
2026-04-18 20:17:35.025,0.16671305,-0.0784531999999988,9.85568325
2026-04-18 20:17:35.224,0.18632635,-0.1078731499999988,9.79684335
2026-04-18 20:17:35.424,0.0980665,-0.0784531999999988,9.80665
2026-04-18 20:17:35.624,0.0392266,-0.04903324999999879,9.8851032
2026-04-18 20:17:35.826,0.0392266,-0.05883989999999879,9.87529655
2026-04-18 20:17:36.024,0.04903325,-0.0980664999999988,9.8262633
2026-04-18 20:17:36.224,-0.02941995,-0.0784531999999988,9.79684335
2026-04-18 20:17:36.427,-0.392266,-0.05883989999999879,9.8654899
2026-04-18 20:17:36.627,-0.392266,-0.05883989999999879,9.8654899
2026-04-18 20:17:36.827,-0.392266,-0.1078731499999988,9.7870367
2026-04-18 20:17:37.025,-0.2353596,-0.0980664999999988,9.7870367
2026-04-18 20:17:37.227,-0.2941995,-0.019613299999998793,9.8458766
2026-04-18 20:17:37.424,-0.2941995,0.06864655000000121,9.81645665
2026-04-18 20:17:37.628,-0.2353596,0.1372931000000012,9.8262633
2026-04-18 20:17:37.825,-0.28439285000000003,0.10787315000000122,9.89490985
2026-04-18 20:17:38.225,-0.28439285000000003,0.09806650000000121,9.77723005
2026-04-18 20:17:38.426,-0.28439285000000003,0.09806650000000121,9.77723005
2026-04-18 20:17:38.627,-0.24516625,0.07845320000000121,9.85568325
2026-04-18 20:17:39.025,-0.34323275,0.06864655000000121,9.83606995
2026-04-18 20:17:39.225,-0.2745862,0.08825985000000121,9.8654899
2026-04-18 20:17:39.426,-0.2745862,1.1997672850325534e-15,9.79684335
2026-04-18 20:17:39.624,-0.22555295,-0.1078731499999988,9.83606995
2026-04-18 20:17:39.826,-0.2157463,-0.3236194499999988,9.83606995
2026-04-18 20:17:40.024,-0.2549729,-0.20593964999999878,9.8458766
2026-04-18 20:17:40.224,-0.18632635,-0.0784531999999988,9.9047165
2026-04-18 20:17:40.830,0.0,-0.10787314999999877,10.03220295
2026-04-18 20:17:41.026,0.0,-0.10787314999999877,10.03220295
2026-04-18 20:17:41.230,-0.0196133,-0.039226599999998814,9.69877685
2026-04-18 20:17:41.428,-0.0196133,-0.039226599999998814,9.69877685
2026-04-18 20:17:41.625,-0.32361945000000003,-0.1372930999999988,9.87529655
2026-04-18 20:17:41.824,-0.32361945000000003,-0.1372930999999988,9.87529655
2026-04-18 20:17:42.029,-0.0980665,-0.05883989999999879,9.89490985
2026-04-18 20:17:42.230,-0.0980665,-0.05883989999999879,9.89490985
2026-04-18 20:17:42.424,-0.0980665,-0.05883989999999879,9.89490985
2026-04-18 20:17:42.824,-0.2549729,-0.13729309999999878,9.95374975
2026-04-18 20:17:43.027,-0.06864655,-0.03922659999999881,9.7478101
2026-04-18 20:17:43.224,-0.06864655,-0.03922659999999881,9.7478101
2026-04-18 20:17:43.426,-0.18632635,-0.1274864499999988,9.8851032
2026-04-18 20:17:43.629,-0.1765197,-0.0980664999999988,9.8262633
2026-04-18 20:17:43.824,-0.1176798,-0.0490332499999988,9.8458766
2026-04-18 20:17:44.027,-0.1176798,-0.0784531999999988,9.85568325
2026-04-18 20:17:44.225,-0.16671305,-0.1176797999999988,9.8654899
2026-04-18 20:17:44.427,-0.1569064,-0.0588398999999988,9.8458766
2026-04-18 20:17:44.624,-0.10787315,-0.0588398999999988,9.81645665
2026-04-18 20:17:44.825,-0.1176798,-0.0980664999999988,9.79684335
2026-04-18 20:17:45.024,-0.1176798,-0.0980664999999988,9.79684335
2026-04-18 20:17:45.224,-0.1569064,-0.0686465499999988,9.87529655
2026-04-18 20:17:45.425,-0.1176798,-0.1078731499999988,9.83606995
2026-04-18 20:17:45.625,-0.1176798,-0.0686465499999988,9.8458766
2026-04-18 20:17:45.826,-0.1176798,-0.0686465499999988,9.8458766
2026-04-18 20:17:46.029,-0.14709975,-0.0980664999999988,9.83606995
2026-04-18 20:17:46.224,-0.1372931,-0.1274864499999988,9.85568325
2026-04-18 20:17:46.428,-0.10787315,-0.0294199499999988,9.81645665
2026-04-18 20:17:46.624,-0.1176798,-0.0392265999999988,9.8262633
2026-04-18 20:17:46.824,-0.1569064,-0.1372930999999988,9.87529655
2026-04-18 20:17:47.025,-0.14709975,-0.0980664999999988,9.85568325
2026-04-18 20:17:47.225,-0.1176798,-0.029419949999998793,9.83606995
2026-04-18 20:17:47.426,-0.10787315,-0.0588398999999988,9.83606995
2026-04-18 20:17:47.625,-0.12748645,-0.1274864499999988,9.83606995
2026-04-18 20:17:47.825,-0.1569064,-0.0882598499999988,9.8458766
2026-04-18 20:17:48.025,-0.14709975,-0.029419949999998793,9.8458766
2026-04-18 20:17:48.225,-0.1176798,-0.0686465499999988,9.8262633
2026-04-18 20:17:48.425,-0.1176798,-0.1078731499999988,9.85568325
2026-04-18 20:17:48.625,-0.12748645,-0.0882598499999988,9.83606995
2026-04-18 20:17:48.824,-0.14709975,-0.0490332499999988,9.83606995
2026-04-18 20:17:49.025,-0.14709975,-0.0686465499999988,9.8458766
2026-04-18 20:17:49.226,-0.12748645,-0.1078731499999988,9.85568325
2026-04-18 20:17:49.429,-0.0980665,-0.0784531999999988,9.81645665
2026-04-18 20:17:49.628,-0.12748645,-0.0686465499999988,9.83606995
2026-04-18 20:17:49.827,-0.16671305,-0.0686465499999988,9.8458766
2026-04-18 20:17:50.030,-0.14709975,-0.0686465499999988,9.8458766
2026-04-18 20:17:50.228,-0.10787315,-0.0784531999999988,9.8458766
2026-04-18 20:17:50.427,-0.08825985,-0.0882598499999988,9.8458766
2026-04-18 20:17:50.628,-0.1372931,-0.0784531999999988,9.8262633
2026-04-18 20:17:50.830,-0.16671305,-0.0686465499999988,9.85568325
2026-04-18 20:17:51.030,-0.16671305,-0.0686465499999988,9.85568325
2026-04-18 20:17:51.427,-0.1176798,-0.0588398999999988,9.8458766
2026-04-18 20:17:51.627,-0.1569064,-0.0784531999999988,9.8458766
2026-04-18 20:17:51.828,-0.1569064,-0.0980664999999988,9.83606995
2026-04-18 20:17:52.029,-0.1569064,-0.0980664999999988,9.83606995
2026-04-18 20:17:52.229,-0.1569064,-0.0980664999999988,9.83606995
2026-04-18 20:17:52.428,-0.12748645,-0.0882598499999988,9.8458766
2026-04-18 20:17:52.629,-0.1372931,-0.1078731499999988,9.83606995
2026-04-18 20:17:52.827,-0.1372931,-0.1078731499999988,9.83606995
2026-04-18 20:17:53.028,-0.14709975,-0.0490332499999988,9.8262633
2026-04-18 20:17:53.227,-0.1372931,-0.0784531999999988,9.85568325
2026-04-18 20:17:53.428,-0.0980665,-0.0980664999999988,9.8851032
2026-04-18 20:17:53.628,-0.08825985,-0.0784531999999988,9.83606995
2026-04-18 20:17:53.832,-0.12748645,-0.0588398999999988,9.81645665
2026-04-18 20:17:54.031,-0.12748645,-0.0588398999999988,9.81645665
2026-04-18 20:17:54.227,-0.12748645,-0.0588398999999988,9.81645665
2026-04-18 20:17:54.428,-0.08825985,-0.0784531999999988,9.8262633
2026-04-18 20:17:54.629,-0.08825985,-0.0686465499999988,9.8262633
2026-04-18 20:17:54.828,-0.08825985,-0.0686465499999988,9.8262633
2026-04-18 20:17:55.027,-0.08825985,-0.0686465499999988,9.8262633
2026-04-18 20:17:55.227,-0.1372931,-0.0686465499999988,9.8654899
2026-04-18 20:17:55.427,-0.1372931,-0.0686465499999988,9.8654899
2026-04-18 20:17:55.628,-0.1176798,-0.0784531999999988,9.81645665
2026-04-18 20:17:55.830,-0.14709975,-0.0784531999999988,9.8262633
2026-04-18 20:17:56.028,-0.14709975,-0.0784531999999988,9.8262633
2026-04-18 20:17:56.235,-0.1176798,-0.0686465499999988,9.87529655
2026-04-18 20:17:56.431,-0.1176798,-0.0686465499999988,9.87529655
2026-04-18 20:17:56.628,-0.1176798,-0.0686465499999988,9.87529655
2026-04-18 20:17:56.829,-0.1176798,-0.0686465499999988,9.87529655
2026-04-18 20:17:57.028,-0.1176798,-0.0686465499999988,9.87529655
2026-04-18 20:17:57.229,-0.1176798,-0.0686465499999988,9.87529655
2026-04-18 20:17:57.428,-0.1176798,-0.0686465499999988,9.87529655
2026-04-18 20:17:57.627,-0.12748645,-0.0980664999999988,9.8262633
2026-04-18 20:17:57.828,-0.14709975,-0.0882598499999988,9.8262633
2026-04-18 20:17:58.033,-0.14709975,-0.0588398999999988,9.8458766
2026-04-18 20:17:58.228,-0.10787315,-0.0588398999999988,9.8458766
2026-04-18 20:17:58.431,-0.0980665,-0.0980664999999988,9.8262633
2026-04-18 20:17:58.627,-0.14709975,-0.0980664999999988,9.83606995
2026-04-18 20:17:58.862,-0.18632635,-0.0686465499999988,9.8654899
2026-04-18 20:17:59.024,-0.1372931,-0.05883989999999879,9.8654899
2026-04-18 20:17:59.224,-0.08825985,-0.0882598499999988,9.81645665
2026-04-18 20:17:59.625,-0.1569064,-0.0686465499999988,9.85568325
