timestamp,acc_x,acc_y,acc_z
2026-05-02 09:57:27.274,-0.16671305,-0.1372930999999988,9.83606995
2026-05-02 09:57:27.513,-0.16671305,-0.0784531999999988,9.83606995
2026-05-02 09:57:27.774,-0.14709975,-0.0784531999999988,9.89490985
2026-05-02 09:57:28.013,-0.1176798,-0.1372930999999988,9.77723005
2026-05-02 09:57:28.277,-0.196133,-0.10787314999999878,9.91452315
2026-05-02 09:57:28.513,-0.14709975,-0.05883989999999879,9.85568325
2026-05-02 09:57:28.773,-0.10787315,-0.1274864499999988,9.7674234
2026-05-02 09:57:29.011,-0.16671305,-0.11767979999999878,9.9243298
2026-05-02 09:57:29.273,-0.16671305,-0.0980664999999988,9.8262633
2026-05-02 09:57:29.513,-0.14709975,-0.0784531999999988,9.8458766
2026-05-02 09:57:29.772,-0.1765197,-0.1274864499999988,9.8654899
2026-05-02 09:57:30.019,-0.16671305,-0.1274864499999988,9.80665
2026-05-02 09:57:30.274,-0.1765197,-0.09806649999999878,9.9047165
2026-05-02 09:57:30.512,-0.1569064,-0.0882598499999988,9.81645665
2026-05-02 09:57:30.772,-0.16671305,-0.1176797999999988,9.83606995
2026-05-02 09:57:31.022,-0.1372931,-0.1274864499999988,9.8851032
2026-05-02 09:57:31.274,-0.1176798,-0.0980664999999988,9.77723005
2026-05-02 09:57:31.517,-0.1765197,-0.04903324999999879,9.91452315
2026-05-02 09:57:31.781,-0.1569064,-0.1569063999999988,9.8262633
2026-05-02 09:57:32.013,-0.1372931,-0.1176797999999988,9.85568325
2026-05-02 09:57:32.279,-0.1372931,-0.0490332499999988,9.8458766
2026-05-02 09:57:32.512,-0.1765197,-0.1274864499999988,9.8262633
2026-05-02 09:57:32.773,-0.16671305,-0.15690639999999878,9.9243298
2026-05-02 09:57:33.017,-0.10787315,-0.0392265999999988,9.77723005
2026-05-02 09:57:33.271,-0.1765197,-0.1176797999999988,9.87529655
2026-05-02 09:57:33.512,-0.18632635,-0.1372930999999988,9.8654899
2026-05-02 09:57:33.771,-0.1176798,-0.0686465499999988,9.79684335
2026-05-02 09:57:34.019,-0.1372931,-0.0980664999999988,9.8851032
2026-05-02 09:57:34.270,-0.16671305,-0.1372930999999988,9.81645665
2026-05-02 09:57:34.513,-0.18632635,-0.09806649999999878,9.9047165
2026-05-02 09:57:34.772,-0.1176798,-0.0686465499999988,9.81645665
2026-05-02 09:57:35.012,-0.1372931,-0.1176797999999988,9.8262633
2026-05-02 09:57:35.269,-0.196133,-0.13729309999999878,9.9047165
2026-05-02 09:57:35.510,-0.1569064,-0.0784531999999988,9.8262633
2026-05-02 09:57:35.769,-0.1176798,-0.1176797999999988,9.8654899
2026-05-02 09:57:36.009,-0.14709975,-0.0882598499999988,9.81645665
2026-05-02 09:57:36.270,-0.18632635,-0.1078731499999988,9.85568325
2026-05-02 09:57:36.510,-0.1569064,-0.1176797999999988,9.8851032
2026-05-02 09:57:36.769,-0.1176798,-0.1078731499999988,9.80665
2026-05-02 09:57:37.011,-0.1569064,-0.0882598499999988,9.87529655
2026-05-02 09:57:37.269,-0.1765197,-0.1176797999999988,9.85568325
2026-05-02 09:57:37.509,-0.14709975,-0.1078731499999988,9.83606995
2026-05-02 09:57:37.770,-0.14709975,-0.0784531999999988,9.85568325
2026-05-02 09:57:38.010,-0.1372931,-0.1470997499999988,9.83606995
2026-05-02 09:57:38.268,-0.1765197,-0.0882598499999988,9.8458766
2026-05-02 09:57:38.509,-0.14709975,-0.0686465499999988,9.87529655
2026-05-02 09:57:38.769,-0.1372931,-0.1569063999999988,9.81645665
2026-05-02 09:57:39.009,-0.1569064,-0.0980664999999988,9.8654899
2026-05-02 09:57:39.269,-0.1569064,-0.05883989999999879,9.85568325
2026-05-02 09:57:39.510,-0.1372931,-0.1372930999999988,9.83606995
2026-05-02 09:57:39.770,-0.1765197,-0.1274864499999988,9.8851032
2026-05-02 09:57:40.011,-0.1372931,-0.0686465499999988,9.80665
2026-05-02 09:57:40.268,-0.12748645,-0.0980664999999988,9.8458766
2026-05-02 09:57:40.509,-0.196133,-0.1176797999999988,9.87529655
2026-05-02 09:57:40.768,-0.1569064,-0.1078731499999988,9.81645665
2026-05-02 09:57:41.011,-0.1176798,-0.0980664999999988,9.85568325
2026-05-02 09:57:41.267,-0.14709975,-0.0882598499999988,9.83606995
2026-05-02 09:57:41.509,-0.18632635,-0.1078731499999988,9.8654899
2026-05-02 09:57:41.768,-0.1569064,-0.1078731499999988,9.85568325
2026-05-02 09:57:42.018,-0.1176798,-0.1078731499999988,9.81645665
2026-05-02 09:57:42.268,-0.16671305,-0.0784531999999988,9.8458766
2026-05-02 09:57:42.509,-0.18632635,-0.1274864499999988,9.87529655
2026-05-02 09:57:42.768,-0.1176798,-0.1078731499999988,9.81645665
2026-05-02 09:57:43.012,-0.1372931,-0.0882598499999988,9.85568325
2026-05-02 09:57:43.269,-0.18632635,-0.1176797999999988,9.85568325
2026-05-02 09:57:43.508,-0.14709975,-0.1176797999999988,9.83606995
2026-05-02 09:57:43.770,-0.1372931,-0.0686465499999988,9.85568325
2026-05-02 09:57:44.013,-0.1569064,-0.1470997499999988,9.8458766
2026-05-02 09:57:44.272,-0.1765197,-0.0980664999999988,9.85568325
2026-05-02 09:57:44.509,-0.12748645,-0.0686465499999988,9.8262633
2026-05-02 09:57:44.765,-0.1569064,-0.1176797999999988,9.85568325
2026-05-02 09:57:45.014,-0.16671305,-0.1078731499999988,9.85568325
2026-05-02 09:57:45.274,-0.1569064,-0.0980664999999988,9.85568325
2026-05-02 09:57:45.509,-0.1372931,-0.0882598499999988,9.81645665
2026-05-02 09:57:45.768,-0.1569064,-0.1274864499999988,9.85568325
2026-05-02 09:57:46.011,-0.1569064,-0.0980664999999988,9.85568325
2026-05-02 09:57:46.268,-0.1569064,-0.0784531999999988,9.83606995
2026-05-02 09:57:46.509,-0.1372931,-0.1372930999999988,9.8458766
2026-05-02 09:57:46.769,-0.1569064,-0.0882598499999988,9.8262633
2026-05-02 09:57:47.016,-0.1765197,-0.1078731499999988,9.8851032
2026-05-02 09:57:47.267,-0.1569064,-0.1470997499999988,9.83606995
2026-05-02 09:57:47.507,-0.1372931,-0.03922659999999879,9.83606995
2026-05-02 09:57:47.767,-0.16671305,-0.1078731499999988,9.87529655
2026-05-02 09:57:48.009,-0.14709975,-0.1569063999999988,9.81645665
2026-05-02 09:57:48.268,-0.1569064,-0.0686465499999988,9.85568325
2026-05-02 09:57:48.507,-0.1765197,-0.0980664999999988,9.87529655
2026-05-02 09:57:48.766,-0.12748645,-0.1274864499999988,9.81645665
2026-05-02 09:57:49.007,-0.1569064,-0.0882598499999988,9.8654899
2026-05-02 09:57:49.265,-0.1569064,-0.0980664999999988,9.83606995
2026-05-02 09:57:49.507,-0.1569064,-0.1078731499999988,9.8458766
2026-05-02 09:57:49.765,-0.1569064,-0.1078731499999988,9.8654899
2026-05-02 09:57:50.008,-0.1372931,-0.1078731499999988,9.8262633
2026-05-02 09:57:50.265,-0.1569064,-0.1078731499999988,9.85568325
2026-05-02 09:57:50.505,-0.16671305,-0.0980664999999988,9.8458766
2026-05-02 09:57:50.765,-0.1569064,-0.0980664999999988,9.8458766
2026-05-02 09:57:51.009,-0.1372931,-0.0980664999999988,9.81645665
2026-05-02 09:57:51.264,-0.1569064,-0.1078731499999988,9.8654899
2026-05-02 09:57:51.505,-0.16671305,-0.1274864499999988,9.8654899
2026-05-02 09:57:51.765,-0.14709975,-0.0784531999999988,9.85568325
2026-05-02 09:57:52.006,-0.1372931,-0.0882598499999988,9.81645665
2026-05-02 09:57:52.264,-0.16671305,-0.1176797999999988,9.83606995
2026-05-02 09:57:52.504,-0.1569064,-0.1176797999999988,9.8654899
2026-05-02 09:57:52.765,-0.1569064,-0.0686465499999988,9.85568325
2026-05-02 09:57:53.007,-0.14709975,-0.0980664999999988,9.85568325
2026-05-02 09:57:53.265,-0.14709975,-0.1372930999999988,9.8262633
2026-05-02 09:57:53.503,-0.18632635,-0.0686465499999988,9.8458766
2026-05-02 09:57:53.763,-0.20593965,-0.0686465499999988,9.85568325
2026-05-02 09:57:54.013,-0.1765197,-0.1569063999999988,9.8654899
2026-05-02 09:57:54.268,-0.14709975,-0.0686465499999988,9.83606995
2026-05-02 09:57:54.505,-0.14709975,-0.0784531999999988,9.83606995
2026-05-02 09:57:54.762,-0.18632635,-0.1470997499999988,9.8458766
2026-05-02 09:57:55.011,-0.16671305,-0.0980664999999988,9.8851032
2026-05-02 09:57:55.263,-0.1176798,-0.0588398999999988,9.81645665
2026-05-02 09:57:55.505,-0.14709975,-0.1176797999999988,9.8458766
2026-05-02 09:57:55.761,-0.196133,-0.1274864499999988,9.8654899
2026-05-02 09:57:56.005,-0.1372931,-0.0882598499999988,9.8458766
2026-05-02 09:57:56.263,-0.1176798,-0.0784531999999988,9.85568325
2026-05-02 09:57:56.505,-0.1372931,-0.1274864499999988,9.8262633
2026-05-02 09:57:56.764,-0.18632635,-0.1470997499999988,9.8654899
2026-05-02 09:57:57.005,-0.1569064,-0.04903324999999879,9.8654899
2026-05-02 09:57:57.261,-0.1176798,-0.0784531999999988,9.80665
2026-05-02 09:57:57.505,-0.14709975,-0.1569063999999988,9.85568325
2026-05-02 09:57:57.763,-0.1765197,-0.1078731499999988,9.8851032
2026-05-02 09:57:58.004,-0.14709975,-0.0490332499999988,9.83606995
2026-05-02 09:57:58.265,-0.12748645,-0.1372930999999988,9.80665
2026-05-02 09:57:58.504,-0.1569064,-0.1274864499999988,9.8851032
2026-05-02 09:57:58.762,-0.1569064,-0.0784531999999988,9.8262633
2026-05-02 09:57:59.001,-0.1569064,-0.0882598499999988,9.8654899
2026-05-02 09:57:59.263,-0.14709975,-0.1470997499999988,9.85568325
2026-05-02 09:57:59.503,-0.12748645,-0.0980664999999988,9.81645665
2026-05-02 09:57:59.763,-0.18632635,-0.05883989999999879,9.89490985
2026-05-02 09:58:00.008,-0.1372931,-0.1274864499999988,9.81645665
2026-05-02 09:58:00.264,-0.1372931,-0.1274864499999988,9.83606995
2026-05-02 09:58:00.500,-0.16671305,-0.0784531999999988,9.8851032
2026-05-02 09:58:00.762,-0.14709975,-0.0686465499999988,9.79684335
2026-05-02 09:58:01.010,-0.14709975,-0.1569063999999988,9.8851032
2026-05-02 09:58:01.264,-0.14709975,-0.0980664999999988,9.83606995
2026-05-02 09:58:01.502,-0.14709975,-0.05883989999999879,9.85568325
2026-05-02 09:58:01.763,-0.14709975,-0.1274864499999988,9.8458766
2026-05-02 09:58:02.005,-0.16671305,-0.1274864499999988,9.8458766
2026-05-02 09:58:02.263,-0.14709975,-0.04903324999999879,9.8654899
2026-05-02 09:58:02.503,-0.12748645,-0.1176797999999988,9.83606995
2026-05-02 09:58:02.763,-0.16671305,-0.1274864499999988,9.8458766
2026-05-02 09:58:03.002,-0.16671305,-0.0882598499999988,9.87529655
2026-05-02 09:58:03.261,-0.12748645,-0.0980664999999988,9.83606995
2026-05-02 09:58:03.503,-0.1372931,-0.1078731499999988,9.8262633
2026-05-02 09:58:03.761,-0.16671305,-0.1372930999999988,9.8654899
2026-05-02 09:58:04.010,-0.1765197,-0.0588398999999988,9.8458766
2026-05-02 09:58:04.260,-0.10787315,-0.1176797999999988,9.8458766
2026-05-02 09:58:04.501,-0.12748645,-0.1372930999999988,9.8262633
2026-05-02 09:58:04.761,-0.22555295,-0.0686465499999988,9.8851032
2026-05-02 09:58:05.003,-0.12748645,-0.1176797999999988,9.83606995
2026-05-02 09:58:05.262,-0.10787315,-0.1274864499999988,9.79684335
2026-05-02 09:58:05.499,-0.16671305,-0.09806649999999878,9.9047165
2026-05-02 09:58:05.761,-0.1765197,-0.0588398999999988,9.8262633
2026-05-02 09:58:06.003,-0.14709975,-0.16671304999999878,9.8654899
2026-05-02 09:58:06.260,-0.10787315,-0.0882598499999988,9.8262633
2026-05-02 09:58:06.502,-0.1765197,-0.0686465499999988,9.8654899
2026-05-02 09:58:06.762,-0.16671305,-0.1470997499999988,9.8654899
2026-05-02 09:58:07.005,-0.12748645,-0.1176797999999988,9.79684335
2026-05-02 09:58:07.261,-0.1569064,-0.05883989999999879,9.89490985
2026-05-02 09:58:07.502,-0.14709975,-0.1176797999999988,9.8458766
2026-05-02 09:58:07.760,-0.14709975,-0.1372930999999988,9.83606995
2026-05-02 09:58:08.006,-0.1569064,-0.0980664999999988,9.8851032
2026-05-02 09:58:08.260,-0.14709975,-0.0588398999999988,9.80665
2026-05-02 09:58:08.502,-0.1372931,-0.1569063999999988,9.8654899
2026-05-02 09:58:08.761,-0.1372931,-0.1078731499999988,9.8458766
2026-05-02 09:58:09.004,-0.1569064,-0.0784531999999988,9.8654899
2026-05-02 09:58:09.261,-0.1569064,-0.0980664999999988,9.8458766
2026-05-02 09:58:09.498,-0.1372931,-0.1470997499999988,9.8262633
2026-05-02 09:58:09.761,-0.1372931,-0.0784531999999988,9.8654899
2026-05-02 09:58:10.008,-0.1569064,-0.0686465499999988,9.8654899
2026-05-02 09:58:10.262,-0.14709975,-0.1372930999999988,9.85568325
2026-05-02 09:58:10.498,-0.1372931,-0.1078731499999988,9.79684335
2026-05-02 09:58:10.761,-0.24516625,1.2033701897924109e-15,9.8262633
2026-05-02 09:58:11.005,-0.1765197,0.05883990000000122,9.9439431
2026-05-02 09:58:11.260,-0.0980665,0.06864655000000121,9.80665
2026-05-02 09:58:11.503,-0.1176798,-0.03922659999999879,9.87529655
2026-05-02 09:58:11.760,-0.1569064,0.029419950000001208,9.8458766
2026-05-02 09:58:12.002,-0.196133,0.05883990000000121,9.85568325
2026-05-02 09:58:12.259,-0.22555295,-0.0784531999999988,9.8851032
2026-05-02 09:58:12.500,-0.196133,1.202169221539125e-15,9.81645665
2026-05-02 09:58:12.760,-0.2353596,0.03922660000000121,9.8654899
2026-05-02 09:58:13.005,-0.28439285000000003,-0.1078731499999988,9.85568325
2026-05-02 09:58:13.259,-0.24516625,-0.009806649999998794,9.8458766
2026-05-02 09:58:13.500,-0.24516625,1.202169221539125e-15,9.81645665
2026-05-02 09:58:13.757,-0.2549729,-0.0784531999999988,9.8458766
2026-05-02 09:58:14.012,-0.2549729,1.2093750310588401e-15,9.87529655
2026-05-02 09:58:14.263,-0.2745862,-0.0294199499999988,9.80665
2026-05-02 09:58:14.502,-0.28439285000000003,-0.02941994999999879,9.87529655
2026-05-02 09:58:14.757,-0.2353596,1.2009682532858392e-15,9.80665
2026-05-02 09:58:15.013,-0.28439285000000003,-0.0490332499999988,9.8458766
2026-05-02 09:58:15.259,-0.2941995,-0.0686465499999988,9.8851032
2026-05-02 09:58:15.497,-0.28439285000000003,-0.0588398999999988,9.8262633
2026-05-02 09:58:15.759,-0.2549729,-0.019613299999998796,9.8262633
2026-05-02 09:58:16.005,-0.2941995,-0.05883989999999879,9.8654899
2026-05-02 09:58:16.259,-0.26477955,-0.029419949999998793,9.8458766
2026-05-02 09:58:16.496,-0.2745862,-0.03922659999999879,9.8458766
2026-05-02 09:58:16.759,-0.28439285000000003,-0.0490332499999988,9.8458766
2026-05-02 09:58:17.009,-0.26477955,1.2093750310588401e-15,9.87529655
2026-05-02 09:58:17.257,-0.2941995,-0.03922659999999879,9.87529655
2026-05-02 09:58:17.498,-0.3530394,-0.1176797999999988,9.8262633
2026-05-02 09:58:17.757,-0.3334261,-0.17651969999999878,9.8851032
2026-05-02 09:58:18.001,-0.2353596,-0.1667130499999988,9.80665
2026-05-02 09:58:18.259,-0.1176798,-0.1176797999999988,9.85568325
2026-05-02 09:58:18.499,-0.00980665,-0.0980664999999988,9.8458766
2026-05-02 09:58:18.758,0.0,-0.009806649999998794,9.8458766
2026-05-02 09:58:19.005,0.0,-0.019613299999998793,9.87529655
2026-05-02 09:58:19.263,-0.02941995,-0.1078731499999988,9.81645665
2026-05-02 09:58:19.500,-0.0588399,-0.029419949999998793,9.85568325
2026-05-02 09:58:19.760,0.0,1.2093750310588401e-15,9.87529655
2026-05-02 09:58:19.999,-0.00980665,-0.1176797999999988,9.8262633
2026-05-02 09:58:20.258,-0.06864655,-0.09806649999999878,9.9047165
2026-05-02 09:58:20.499,-0.00980665,0.0392266000000012,9.7870367
2026-05-02 09:58:20.760,-0.0196133,-0.04903324999999879,9.85568325
2026-05-02 09:58:21.005,-0.06864655,1.2069730945522684e-15,9.85568325
2026-05-02 09:58:21.259,-0.12748645,1.2045711580456967e-15,9.83606995
2026-05-02 09:58:21.500,-0.1176798,-0.03922659999999879,9.8458766
2026-05-02 09:58:21.765,-0.1372931,-0.0490332499999988,9.8262633
2026-05-02 09:58:21.997,-0.18632635,-0.039226599999998786,9.9047165
2026-05-02 09:58:22.257,-0.20593965,-0.03922659999999879,9.8654899
2026-05-02 09:58:22.500,-0.16671305,-0.1078731499999988,9.79684335
2026-05-02 09:58:22.757,-0.2157463,-0.03922659999999879,9.8654899
2026-05-02 09:58:23.008,-0.2157463,-0.0686465499999988,9.8458766
2026-05-02 09:58:23.255,-0.18632635,-0.1176797999999988,9.8458766
2026-05-02 09:58:23.500,-0.2157463,-0.04903324999999879,9.8851032
2026-05-02 09:58:23.763,-0.2353596,-0.1176797999999988,9.8262633
2026-05-02 09:58:23.999,-0.22555295,-0.0882598499999988,9.83606995
2026-05-02 09:58:24.257,-0.2549729,-0.1176797999999988,9.8851032
2026-05-02 09:58:24.499,-0.20593965,-0.1176797999999988,9.77723005
2026-05-02 09:58:24.761,-0.2353596,-0.0980664999999988,9.85568325
2026-05-02 09:58:25.011,-0.2353596,-0.12748644999999878,9.91452315
2026-05-02 09:58:25.257,-0.1569064,-0.05883989999999881,9.7674234
2026-05-02 09:58:25.495,-0.2157463,-0.12748644999999878,9.89490985
2026-05-02 09:58:25.758,-0.22555295,-0.1569063999999988,9.8262633
2026-05-02 09:58:26.002,-0.18632635,-0.0294199499999988,9.8262633
2026-05-02 09:58:26.257,-0.16671305,-0.11767979999999878,9.9047165
2026-05-02 09:58:26.497,-0.18632635,-0.1569063999999988,9.7870367
2026-05-02 09:58:26.757,-0.22555295,-0.0686465499999988,9.9047165
2026-05-02 09:58:27.011,-0.1765197,-0.0882598499999988,9.8262633
2026-05-02 09:58:27.256,-0.14709975,-0.1274864499999988,9.80665
2026-05-02 09:58:27.494,-0.18632635,-0.1078731499999988,9.8851032
2026-05-02 09:58:27.754,-0.2157463,-0.0980664999999988,9.81645665
2026-05-02 09:58:27.999,-0.1569064,-0.1078731499999988,9.8851032
2026-05-02 09:58:28.256,-0.1372931,-0.0882598499999988,9.8262633
2026-05-02 09:58:28.496,-0.196133,-0.1274864499999988,9.8654899
2026-05-02 09:58:28.756,-0.18632635,-0.0882598499999988,9.8262633
2026-05-02 09:58:29.012,-0.14709975,-0.1176797999999988,9.87529655
2026-05-02 09:58:29.256,-0.1372931,-0.1176797999999988,9.81645665
2026-05-02 09:58:29.497,-0.2157463,-0.0784531999999988,9.87529655
2026-05-02 09:58:29.755,-0.196133,-0.1470997499999988,9.8654899
2026-05-02 09:58:29.997,-0.0980665,-0.0980664999999988,9.7870367
2026-05-02 09:58:30.253,-0.18632635,-0.10787314999999878,9.89490985
2026-05-02 09:58:30.500,-0.196133,-0.1176797999999988,9.83606995
2026-05-02 09:58:30.757,-0.1569064,-0.0980664999999988,9.83606995
2026-05-02 09:58:31.007,-0.12748645,-0.0980664999999988,9.8654899
2026-05-02 09:58:31.255,-0.1765197,-0.1470997499999988,9.8262633
2026-05-02 09:58:31.496,-0.22555295,-0.0882598499999988,9.8851032
2026-05-02 09:58:31.755,-0.1372931,-0.1078731499999988,9.8458766
2026-05-02 09:58:31.995,-0.10787315,-0.1274864499999988,9.79684335
2026-05-02 09:58:32.256,-0.2157463,-0.10787314999999878,9.91452315
2026-05-02 09:58:32.507,-0.18632635,-0.1078731499999988,9.83606995
2026-05-02 09:58:32.753,-0.12748645,-0.1176797999999988,9.81645665
2026-05-02 09:58:33.003,-0.16671305,-0.1078731499999988,9.8458766
2026-05-02 09:58:33.257,-0.1765197,-0.0980664999999988,9.85568325
2026-05-02 09:58:33.499,-0.1569064,-0.1274864499999988,9.85568325
2026-05-02 09:58:33.755,-0.1569064,-0.1078731499999988,9.83606995
2026-05-02 09:58:34.000,-0.18632635,-0.1078731499999988,9.87529655
2026-05-02 09:58:34.255,-0.1569064,-0.1078731499999988,9.83606995
2026-05-02 09:58:34.496,-0.1372931,-0.1176797999999988,9.80665
2026-05-02 09:58:34.754,-0.18632635,-0.1274864499999988,9.8851032
2026-05-02 09:58:35.003,-0.16671305,-0.0784531999999988,9.85568325
2026-05-02 09:58:35.261,-0.12748645,-0.1078731499999988,9.85568325
2026-05-02 09:58:35.492,-0.14709975,-0.1372930999999988,9.81645665
2026-05-02 09:58:35.756,-0.196133,-0.0784531999999988,9.81645665
2026-05-02 09:58:36.003,-0.1569064,-0.10787314999999878,9.91452315
2026-05-02 09:58:36.255,-0.1176798,-0.1176797999999988,9.79684335
2026-05-02 09:58:36.497,-0.1765197,-0.1176797999999988,9.8654899
2026-05-02 09:58:36.754,-0.18632635,-0.0882598499999988,9.8458766
2026-05-02 09:58:37.011,-0.14709975,-0.1078731499999988,9.85568325
2026-05-02 09:58:37.253,-0.14709975,-0.1372930999999988,9.8654899
2026-05-02 09:58:37.496,-0.16671305,-0.0784531999999988,9.79684335
2026-05-02 09:58:37.752,-0.1765197,-0.10787314999999878,9.89490985
2026-05-02 09:58:37.996,-0.12748645,-0.1274864499999988,9.81645665
2026-05-02 09:58:38.251,-0.14709975,-0.0686465499999988,9.8458766
2026-05-02 09:58:38.495,-0.18632635,-0.1176797999999988,9.87529655
2026-05-02 09:58:38.754,-0.16671305,-0.1274864499999988,9.80665
2026-05-02 09:58:38.995,-0.1372931,-0.0882598499999988,9.8654899
2026-05-02 09:58:39.253,-0.14709975,-0.0980664999999988,9.83606995
2026-05-02 09:58:39.495,-0.14709975,-0.1274864499999988,9.85568325
2026-05-02 09:58:39.754,-0.1765197,-0.0980664999999988,9.8654899
2026-05-02 09:58:39.994,-0.16671305,-0.0980664999999988,9.8262633
2026-05-02 09:58:40.254,-0.12748645,-0.0980664999999988,9.83606995
2026-05-02 09:58:40.493,-0.14709975,-0.1470997499999988,9.87529655
2026-05-02 09:58:40.751,-0.18632635,-0.0686465499999988,9.83606995
2026-05-02 09:58:40.996,-0.14709975,-0.0784531999999988,9.87529655
2026-05-02 09:58:41.252,-0.1372931,-0.16671304999999878,9.81645665
2026-05-02 09:58:41.493,-0.16671305,-0.0784531999999988,9.83606995
2026-05-02 09:58:41.751,-0.16671305,-0.0686465499999988,9.89490985
2026-05-02 09:58:41.994,-0.14709975,-0.1470997499999988,9.81645665
2026-05-02 09:58:42.255,-0.1569064,-0.1176797999999988,9.8654899
2026-05-02 09:58:42.494,-0.1569064,-0.0686465499999988,9.83606995
2026-05-02 09:58:42.752,-0.1569064,-0.1078731499999988,9.8458766
2026-05-02 09:58:42.994,-0.1372931,-0.1569063999999988,9.8654899
2026-05-02 09:58:43.253,-0.1569064,-0.0490332499999988,9.81645665
2026-05-02 09:58:43.493,-0.18632635,-0.1078731499999988,9.87529655
2026-05-02 09:58:43.752,-0.1372931,-0.1569063999999988,9.83606995
2026-05-02 09:58:44.005,-0.1372931,-0.0784531999999988,9.83606995
2026-05-02 09:58:44.253,-0.1765197,-0.0686465499999988,9.8654899
2026-05-02 09:58:44.495,-0.1765197,-0.1372930999999988,9.83606995
2026-05-02 09:58:44.755,-0.14709975,-0.1078731499999988,9.85568325
2026-05-02 09:58:45.008,-0.1372931,-0.1078731499999988,9.8262633
2026-05-02 09:58:45.254,-0.18632635,-0.0784531999999988,9.8654899
2026-05-02 09:58:45.493,-0.16671305,-0.1176797999999988,9.85568325
2026-05-02 09:58:45.753,-0.1372931,-0.1274864499999988,9.81645665
2026-05-02 09:58:46.001,-0.1569064,-0.0882598499999988,9.87529655
2026-05-02 09:58:46.253,-0.16671305,-0.0882598499999988,9.85568325
2026-05-02 09:58:46.497,-0.1569064,-0.1274864499999988,9.83606995
2026-05-02 09:58:46.753,-0.1765197,-0.1274864499999988,9.8654899
2026-05-02 09:58:47.010,-0.2745862,-0.24516624999999878,9.83606995
2026-05-02 09:58:47.250,-0.2157463,-0.3040061499999988,9.8654899
2026-05-02 09:58:47.493,-0.12748645,-0.2353595999999988,9.77723005
2026-05-02 09:58:47.749,-0.1765197,-0.1470997499999988,9.83606995
2026-05-02 09:58:47.999,-0.2549729,-0.24516624999999878,9.87529655
2026-05-02 09:58:48.253,-0.2353596,-0.21574629999999878,9.8262633
2026-05-02 09:58:48.494,-0.196133,-0.1569063999999988,9.83606995
2026-05-02 09:58:48.752,-0.22555295,-0.18632634999999878,9.8654899
2026-05-02 09:58:49.002,-0.28439285000000003,-0.18632634999999878,9.83606995
2026-05-02 09:58:49.254,-0.2549729,-0.16671304999999878,9.8262633
2026-05-02 09:58:49.493,-0.22555295,-0.1372930999999988,9.85568325
2026-05-02 09:58:49.755,-0.2353596,-0.1274864499999988,9.87529655
2026-05-02 09:58:50.001,-0.24516625,-0.1470997499999988,9.85568325
2026-05-02 09:58:50.253,-0.24516625,-0.1569063999999988,9.8262633
2026-05-02 09:58:50.489,-0.2745862,-0.1274864499999988,9.85568325
2026-05-02 09:58:50.752,-0.30400615,-0.04903324999999879,9.8851032
2026-05-02 09:58:51.009,-0.26477955,-0.0882598499999988,9.8458766
2026-05-02 09:58:51.250,-0.14709975,0.009806650000001204,9.8262633
2026-05-02 09:58:51.499,-0.14709975,-0.029419949999998793,9.83606995
2026-05-02 09:58:51.752,-0.18632635,-0.0882598499999988,9.8654899
2026-05-02 09:58:52.010,-0.1765197,-0.0882598499999988,9.83606995
2026-05-02 09:58:52.252,-0.0196133,-0.0882598499999988,9.8851032
2026-05-02 09:58:52.495,0.1176798,-0.16671304999999878,9.81645665
2026-05-02 09:58:52.752,0.0980665,-0.1078731499999988,9.7870367
2026-05-02 09:58:53.015,0.00980665,-0.0686465499999988,9.89490985
2026-05-02 09:58:53.254,0.0196133,-0.16671304999999878,9.8654899
2026-05-02 09:58:53.493,0.0392266,-0.1470997499999988,9.83606995
2026-05-02 09:58:53.752,0.02941995,-0.0588398999999988,9.8458766
2026-05-02 09:58:53.998,0.0,-0.1176797999999988,9.81645665
2026-05-02 09:58:54.251,-0.0196133,-0.19613299999999878,9.8851032
2026-05-02 09:58:54.491,0.0196133,-0.1274864499999988,9.8458766
2026-05-02 09:58:54.750,0.0196133,-0.1470997499999988,9.79684335
2026-05-02 09:58:55.002,-0.04903325,-0.14709974999999878,9.9047165
2026-05-02 09:58:55.252,-0.06864655,-0.1176797999999988,9.79684335
2026-05-02 09:58:55.488,-0.06864655,-0.1274864499999988,9.8654899
2026-05-02 09:58:55.752,-0.06864655,-0.1372930999999988,9.87529655
2026-05-02 09:58:56.007,-0.06864655,-0.1470997499999988,9.7870367
2026-05-02 09:58:56.250,-0.1372931,-0.10787314999999878,9.89490985
2026-05-02 09:58:56.494,-0.1569064,-0.0980664999999988,9.85568325
2026-05-02 09:58:56.751,-0.0980665,-0.1470997499999988,9.79684335
2026-05-02 09:58:57.017,-0.1176798,-0.1176797999999988,9.8654899
2026-05-02 09:58:57.259,-0.1569064,-0.1176797999999988,9.85568325
2026-05-02 09:58:57.496,-0.16671305,-0.1176797999999988,9.8851032
2026-05-02 09:58:57.749,-0.12748645,-0.1176797999999988,9.81645665
2026-05-02 09:58:58.014,-0.18632635,-0.1176797999999988,9.85568325
2026-05-02 09:58:58.251,-0.20593965,-0.09806649999999878,9.89490985
2026-05-02 09:58:58.494,-0.14709975,-0.1274864499999988,9.7870367
2026-05-02 09:58:58.751,-0.196133,-0.12748644999999878,9.89490985
2026-05-02 09:58:59.012,-0.196133,-0.0882598499999988,9.8262633
2026-05-02 09:58:59.250,-0.22555295,-0.16671304999999878,9.83606995
2026-05-02 09:58:59.494,-0.22555295,-0.13729309999999878,9.89490985
2026-05-02 09:58:59.750,-0.196133,-0.0882598499999988,9.77723005
2026-05-02 09:59:00.012,-0.196133,-0.1176797999999988,9.87529655
2026-05-02 09:59:00.250,-0.2157463,-0.1372930999999988,9.8654899
2026-05-02 09:59:00.492,-0.22555295,-0.0882598499999988,9.83606995
2026-05-02 09:59:00.749,-0.20593965,-0.1274864499999988,9.87529655
2026-05-02 09:59:01.001,-0.2157463,-0.1667130499999988,9.7870367
2026-05-02 09:59:01.249,-0.24516625,-0.08825984999999878,9.91452315
2026-05-02 09:59:01.491,-0.22555295,-0.1569063999999988,9.85568325
2026-05-02 09:59:01.749,-0.18632635,-0.1765196999999988,9.80665
2026-05-02 09:59:02.012,-0.2157463,-0.1078731499999988,9.83606995
2026-05-02 09:59:02.250,-0.2745862,-0.1274864499999988,9.85568325
2026-05-02 09:59:02.496,-0.196133,-0.17651969999999878,9.8851032
2026-05-02 09:59:02.751,-0.10787315,-0.0882598499999988,9.7870367
2026-05-02 09:59:03.011,-0.1765197,-0.0882598499999988,9.85568325
2026-05-02 09:59:03.249,-0.2157463,-0.13729309999999878,9.91452315
2026-05-02 09:59:03.490,-0.12748645,-0.0980664999999988,9.8262633
2026-05-02 09:59:03.750,-0.0980665,-0.0980664999999988,9.8262633
2026-05-02 09:59:04.003,-0.18632635,-0.1274864499999988,9.8262633
2026-05-02 09:59:04.249,-0.196133,-0.09806649999999878,9.89490985
2026-05-02 09:59:04.492,-0.1176798,-0.0882598499999988,9.85568325
2026-05-02 09:59:04.750,-0.0980665,-0.1078731499999988,9.7870367
2026-05-02 09:59:05.011,-0.16671305,-0.1078731499999988,9.87529655
2026-05-02 09:59:05.250,-0.1765197,-0.1078731499999988,9.8458766
2026-05-02 09:59:05.488,-0.12748645,-0.0882598499999988,9.8458766
2026-05-02 09:59:05.749,-0.0980665,-0.0784531999999988,9.83606995
2026-05-02 09:59:05.998,-0.12748645,-0.0980664999999988,9.8458766
2026-05-02 09:59:06.250,-0.1569064,-0.1176797999999988,9.8654899
2026-05-02 09:59:06.490,-0.14709975,-0.0784531999999988,9.83606995
2026-05-02 09:59:06.748,-0.0784532,-0.0882598499999988,9.8458766
2026-05-02 09:59:06.999,-0.0784532,-0.0784531999999988,9.83606995
2026-05-02 09:59:07.250,-0.16671305,-0.1176797999999988,9.85568325
2026-05-02 09:59:07.489,-0.18632635,-0.0980664999999988,9.87529655
2026-05-02 09:59:07.749,-0.10787315,-0.1176797999999988,9.80665
2026-05-02 09:59:08.002,-0.1176798,-0.1176797999999988,9.8458766
2026-05-02 09:59:08.248,-0.18632635,-0.0686465499999988,9.8458766
2026-05-02 09:59:08.489,-0.1765197,-0.0980664999999988,9.87529655
2026-05-02 09:59:08.749,-0.1176798,-0.1569063999999988,9.8458766
2026-05-02 09:59:09.018,-0.12748645,-0.0980664999999988,9.8262633
2026-05-02 09:59:09.248,-0.16671305,-0.03922659999999879,9.8851032
2026-05-02 09:59:09.490,-0.14709975,-0.1470997499999988,9.8458766
2026-05-02 09:59:09.747,-0.14709975,-0.1470997499999988,9.83606995
2026-05-02 09:59:09.997,-0.1372931,-0.03922659999999879,9.85568325
2026-05-02 09:59:10.248,-0.10787315,-0.0882598499999988,9.8262633
2026-05-02 09:59:10.486,-0.12748645,-0.1372930999999988,9.87529655
2026-05-02 09:59:10.747,-0.1176798,-0.0784531999999988,9.83606995
2026-05-02 09:59:11.014,-0.06864655,-0.0588398999999988,9.8458766
2026-05-02 09:59:11.248,-0.1176798,-0.0980664999999988,9.8654899
2026-05-02 09:59:11.496,-0.1176798,-0.1176797999999988,9.8458766
2026-05-02 09:59:11.747,-0.1176798,-0.0686465499999988,9.85568325
2026-05-02 09:59:11.997,-0.0980665,-0.0588398999999988,9.8458766
2026-05-02 09:59:12.247,-0.10787315,-0.1176797999999988,9.8262633
2026-05-02 09:59:12.489,-0.1569064,-0.0784531999999988,9.87529655
2026-05-02 09:59:12.747,-0.1372931,-0.0686465499999988,9.8458766
2026-05-02 09:59:12.998,-0.0980665,-0.0686465499999988,9.8654899
2026-05-02 09:59:13.248,-0.0784532,-0.0882598499999988,9.83606995
2026-05-02 09:59:13.487,-0.10787315,-0.0588398999999988,9.81645665
2026-05-02 09:59:13.748,-0.1372931,-0.05883989999999879,9.9047165
2026-05-02 09:59:14.003,-0.1176798,-0.1078731499999988,9.81645665
2026-05-02 09:59:14.249,-0.14709975,-0.0784531999999988,9.85568325
2026-05-02 09:59:14.489,-0.20593965,-0.1274864499999988,9.8654899
2026-05-02 09:59:14.748,-0.1569064,-0.1274864499999988,9.83606995
2026-05-02 09:59:15.008,-0.1176798,-0.0980664999999988,9.8458766
2026-05-02 09:59:15.248,-0.1176798,-0.1078731499999988,9.8654899
2026-05-02 09:59:15.489,-0.16671305,-0.1176797999999988,9.81645665
2026-05-02 09:59:15.746,-0.1569064,-0.1274864499999988,9.8654899
2026-05-02 09:59:16.007,-0.1372931,-0.1078731499999988,9.8458766
2026-05-02 09:59:16.249,-0.04903325,-0.0686465499999988,9.8458766
2026-05-02 09:59:16.488,-0.0980665,-0.0882598499999988,9.85568325
2026-05-02 09:59:16.747,-0.14709975,-0.0980664999999988,9.8654899
2026-05-02 09:59:17.008,-0.06864655,-0.0784531999999988,9.81645665
2026-05-02 09:59:17.247,-0.08825985,-0.0882598499999988,9.85568325
2026-05-02 09:59:17.495,-0.0980665,-0.04903324999999879,9.8654899
2026-05-02 09:59:17.746,-0.10787315,-0.0882598499999988,9.83606995
2026-05-02 09:59:17.998,-0.1176798,-0.1176797999999988,9.85568325
2026-05-02 09:59:18.246,-0.1765197,-0.0686465499999988,9.8262633
2026-05-02 09:59:18.487,-0.1569064,-0.1569063999999988,9.85568325
2026-05-02 09:59:18.746,-0.12748645,-0.1274864499999988,9.8851032
2026-05-02 09:59:19.003,-0.10787315,-0.0588398999999988,9.81645665
2026-05-02 09:59:19.246,-0.1372931,-0.1176797999999988,9.8851032
2026-05-02 09:59:19.491,-0.06864655,-0.0784531999999988,9.81645665
2026-05-02 09:59:19.748,-0.08825985,-0.0882598499999988,9.8458766
2026-05-02 09:59:20.001,-0.1765197,-0.10787314999999878,9.89490985
2026-05-02 09:59:20.246,-0.10787315,-0.0784531999999988,9.8262633
2026-05-02 09:59:20.485,-0.08825985,-0.0980664999999988,9.8458766
2026-05-02 09:59:20.746,-0.0588399,-0.0784531999999988,9.83606995
2026-05-02 09:59:21.021,-0.0980665,-0.0784531999999988,9.87529655
2026-05-02 09:59:21.247,-0.12748645,-0.1078731499999988,9.8458766
2026-05-02 09:59:21.495,-0.44129925000000003,-0.1863263499999988,9.79684335
2026-05-02 09:59:21.748,-0.6080123,-0.14709974999999878,9.9831697
2026-05-02 09:59:22.012,-0.42168595,-0.2353595999999988,9.7478101
2026-05-02 09:59:22.247,-0.28439285000000003,-0.19613299999999878,9.83606995
2026-05-02 09:59:22.486,-0.32361945000000003,-0.1176797999999988,9.8262633
2026-05-02 09:59:22.747,-0.38245935,-0.13729309999999878,9.89490985
2026-05-02 09:59:23.015,-0.2549729,-0.1470997499999988,9.85568325
2026-05-02 09:59:23.246,-0.14709975,-0.0980664999999988,9.7478101
2026-05-02 09:59:23.486,-0.22555295,-0.08825984999999878,9.9243298
2026-05-02 09:59:23.753,-0.2549729,-0.1372930999999988,9.8458766
2026-05-02 09:59:24.007,-0.16671305,-0.0784531999999988,9.85568325
2026-05-02 09:59:24.246,-0.1176798,-0.0490332499999988,9.83606995
2026-05-02 09:59:24.486,-0.16671305,-0.1274864499999988,9.8262633
2026-05-02 09:59:24.745,-0.22555295,-0.06864654999999878,9.93413645
2026-05-02 09:59:25.017,-0.12748645,-0.06864654999999881,9.77723005
2026-05-02 09:59:25.252,-0.14709975,-0.1176797999999988,9.8654899
2026-05-02 09:59:25.483,-0.18632635,-0.0882598499999988,9.8654899
2026-05-02 09:59:25.747,-0.1765197,-0.0784531999999988,9.80665
2026-05-02 09:59:26.000,-0.1372931,-0.0686465499999988,9.87529655
2026-05-02 09:59:26.246,-0.14709975,-0.1372930999999988,9.8262633
2026-05-02 09:59:26.482,-0.196133,-0.0784531999999988,9.85568325
2026-05-02 09:59:26.746,-0.16671305,-0.0784531999999988,9.87529655
2026-05-02 09:59:27.006,-0.10787315,-0.1078731499999988,9.80665
2026-05-02 09:59:27.248,-0.16671305,-0.1176797999999988,9.8654899
2026-05-02 09:59:27.492,-0.20593965,-0.05883989999999879,9.87529655
2026-05-02 09:59:27.745,-0.12748645,-0.0882598499999988,9.81645665
2026-05-02 09:59:28.001,-0.1372931,-0.1274864499999988,9.87529655
2026-05-02 09:59:28.245,-0.1765197,-0.0882598499999988,9.8262633
2026-05-02 09:59:28.486,-0.18632635,-0.05883989999999879,9.8654899
2026-05-02 09:59:28.746,-0.1176798,-0.1176797999999988,9.87529655
2026-05-02 09:59:29.004,-0.1372931,-0.1078731499999988,9.81645665
2026-05-02 09:59:29.245,-0.1765197,-0.0686465499999988,9.8654899
2026-05-02 09:59:29.496,-0.1372931,-0.0980664999999988,9.80665
2026-05-02 09:59:29.746,-0.14709975,-0.1372930999999988,9.87529655
2026-05-02 09:59:30.001,-0.1569064,-0.0686465499999988,9.8654899
2026-05-02 09:59:30.245,-0.1372931,-0.1078731499999988,9.8262633
2026-05-02 09:59:30.490,-0.1176798,-0.1176797999999988,9.8262633
2026-05-02 09:59:30.747,-0.18632635,-0.09806649999999878,9.9047165
2026-05-02 09:59:31.006,-0.16671305,-0.0882598499999988,9.81645665
2026-05-02 09:59:31.245,-0.08825985,-0.1470997499999988,9.80665
2026-05-02 09:59:31.486,-0.14709975,-0.0784531999999988,9.8851032
2026-05-02 09:59:31.745,-0.196133,-0.0882598499999988,9.85568325
2026-05-02 09:59:32.011,-0.1372931,-0.1274864499999988,9.8262633
2026-05-02 09:59:32.245,-0.0980665,-0.1176797999999988,9.8262633
2026-05-02 09:59:32.486,-0.196133,-0.0784531999999988,9.87529655
2026-05-02 09:59:32.744,-0.16671305,-0.1372930999999988,9.8458766
2026-05-02 09:59:33.007,-0.1176798,-0.1078731499999988,9.81645665
2026-05-02 09:59:33.245,-0.12748645,-0.0882598499999988,9.85568325
2026-05-02 09:59:33.486,-0.18632635,-0.1274864499999988,9.87529655
2026-05-02 09:59:33.743,-0.1372931,-0.0980664999999988,9.8262633
2026-05-02 09:59:34.001,-0.1176798,-0.1078731499999988,9.83606995
2026-05-02 09:59:34.251,-0.1765197,-0.1078731499999988,9.8654899
2026-05-02 09:59:34.490,-0.1569064,-0.1176797999999988,9.8458766
2026-05-02 09:59:34.748,-0.12748645,-0.1078731499999988,9.8458766
2026-05-02 09:59:35.006,-0.1569064,-0.0980664999999988,9.83606995
2026-05-02 09:59:35.242,-0.1569064,-0.1176797999999988,9.85568325
2026-05-02 09:59:35.483,-0.14709975,-0.1274864499999988,9.85568325
2026-05-02 09:59:35.745,-0.1372931,-0.0882598499999988,9.8262633
2026-05-02 09:59:36.002,-0.1569064,-0.0882598499999988,9.83606995
2026-05-02 09:59:36.244,-0.1765197,-0.1176797999999988,9.87529655
2026-05-02 09:59:36.486,-0.10787315,-0.1372930999999988,9.8458766
2026-05-02 09:59:36.747,-0.1176798,-0.0980664999999988,9.81645665
2026-05-02 09:59:37.006,-0.18632635,-0.0882598499999988,9.8654899
2026-05-02 09:59:37.243,-0.2745862,-0.21574629999999878,9.8262633
2026-05-02 09:59:37.484,-0.2353596,-0.22555294999999878,9.85568325
2026-05-02 09:59:37.744,-0.2941995,-0.1569063999999988,9.8654899
2026-05-02 09:59:37.996,-0.2941995,-0.23535959999999878,9.83606995
2026-05-02 09:59:38.244,-0.34323275,-0.2647795499999988,9.8458766
2026-05-02 09:59:38.493,-0.3138128,-0.17651969999999878,9.8654899
2026-05-02 09:59:38.744,-0.1765197,-0.1078731499999988,9.8654899
2026-05-02 09:59:39.005,-0.18632635,-0.0784531999999988,9.85568325
2026-05-02 09:59:39.245,-0.20593965,-0.0784531999999988,9.8458766
2026-05-02 09:59:39.490,-0.18632635,-0.0392265999999988,9.81645665
2026-05-02 09:59:39.743,-0.22555295,-0.03922659999999879,9.85568325
2026-05-02 09:59:39.996,-0.22555295,-0.03922659999999879,9.8654899
2026-05-02 09:59:40.244,-0.1765197,-0.0882598499999988,9.80665
2026-05-02 09:59:40.486,-0.1569064,-0.03922659999999879,9.89490985
2026-05-02 09:59:40.743,-0.20593965,-0.0882598499999988,9.77723005
2026-05-02 09:59:41.005,-0.24516625,-0.09806649999999878,9.89490985
2026-05-02 09:59:41.243,-0.2157463,-0.1078731499999988,9.87529655
2026-05-02 09:59:41.484,-0.1765197,-0.1274864499999988,9.77723005
2026-05-02 09:59:41.743,-0.1765197,-0.06864654999999878,9.9243298
2026-05-02 09:59:41.999,-0.1765197,-0.0490332499999988,9.79684335
2026-05-02 09:59:42.242,-0.18632635,-0.17651969999999878,9.87529655
2026-05-02 09:59:42.483,-0.12748645,-0.04903324999999879,9.85568325
2026-05-02 09:59:42.741,-0.1176798,-0.0098066499999988,9.80665
2026-05-02 09:59:43.006,-0.14709975,-0.07845319999999878,9.9243298
2026-05-02 09:59:43.242,-0.1176798,-0.0588398999999988,9.79684335
2026-05-02 09:59:43.483,-0.1176798,-0.1569063999999988,9.8458766
2026-05-02 09:59:43.744,-0.20593965,-0.16671304999999878,9.89490985
2026-05-02 09:59:43.997,-0.16671305,-0.1274864499999988,9.80665
2026-05-02 09:59:44.242,-0.0588399,-0.03922659999999879,9.87529655
2026-05-02 09:59:44.482,-0.06864655,-0.0784531999999988,9.8458766
2026-05-02 09:59:44.742,-0.1569064,-0.1372930999999988,9.8262633
2026-05-02 09:59:45.004,-0.1569064,-0.0882598499999988,9.8654899
2026-05-02 09:59:45.240,-0.12748645,-0.16671304999999878,9.8262633
2026-05-02 09:59:45.486,-0.0980665,-0.1372930999999988,9.87529655
2026-05-02 09:59:45.745,-0.0784532,-0.029419949999998793,9.85568325
2026-05-02 09:59:46.000,-0.1176798,-0.0882598499999988,9.81645665
2026-05-02 09:59:46.242,-0.14709975,-0.1372930999999988,9.85568325
2026-05-02 09:59:46.485,-0.1765197,-0.1372930999999988,9.8262633
2026-05-02 09:59:46.742,-0.196133,-0.23535959999999878,9.8654899
2026-05-02 09:59:47.008,-0.196133,-0.2647795499999988,9.85568325
2026-05-02 09:59:47.247,-0.0980665,-0.1470997499999988,9.81645665
2026-05-02 09:59:47.483,-0.0980665,-0.0882598499999988,9.8654899
2026-05-02 09:59:47.743,-0.14709975,-0.0784531999999988,9.8851032
2026-05-02 09:59:47.990,-0.14709975,-0.1274864499999988,9.7870367
2026-05-02 09:59:48.242,-0.26477955,-0.2843928499999988,9.8458766
2026-05-02 09:59:48.482,-0.2745862,-0.2843928499999988,9.93413645
2026-05-02 09:59:48.742,-0.1176798,-0.1569063999999988,9.7870367
2026-05-02 09:59:49.011,-0.1176798,-0.19613299999999878,9.8654899
2026-05-02 09:59:49.242,-0.1569064,-0.03922659999999878,9.95374975
2026-05-02 09:59:49.484,-0.08825985,-0.02941994999999881,9.7085835
2026-05-02 09:59:49.741,-0.1569064,-0.08825984999999878,9.97336305
2026-05-02 09:59:49.999,-0.02941995,-0.019613299999998803,9.7870367
2026-05-02 09:59:50.243,-0.02941995,0.0490332500000012,9.80665
2026-05-02 09:59:50.480,-0.1569064,-0.02941994999999879,9.89490985
2026-05-02 09:59:50.742,-0.16671305,-0.0980664999999988,9.75761675
2026-05-02 09:59:50.984,-0.16671305,-0.0980664999999988,9.8851032
2026-05-02 09:59:51.243,-0.22555295,-0.1470997499999988,9.85568325
2026-05-02 09:59:51.485,-0.0980665,-0.0490332499999988,9.80665
2026-05-02 09:59:51.742,-0.196133,-0.1569063999999988,9.8262633
2026-05-02 09:59:51.983,-0.3726527,-0.37265269999999884,9.8851032
2026-05-02 09:59:52.238,-0.2941995,-0.21574629999999878,9.8851032
2026-05-02 09:59:52.482,-0.1569064,-0.0882598499999988,9.77723005
2026-05-02 09:59:52.741,-0.36284605000000003,-0.4609125499999988,9.83606995
2026-05-02 09:59:53.004,-0.48052585000000003,-0.2549728999999988,10.01258965
2026-05-02 09:59:53.240,-0.2157463,-0.09806649999999882,9.6301303
2026-05-02 09:59:53.482,-0.14709975,-0.10787314999999877,10.0616229
2026-05-02 09:59:53.743,-0.0588399,0.09806650000000121,9.7870367
2026-05-02 09:59:53.997,-0.06864655,0.1274864500000012,9.75761675
2026-05-02 09:59:54.243,-0.196133,0.009806650000001228,10.0223963
2026-05-02 09:59:54.482,-0.06864655,1.18055179297998e-15,9.639936950000001
2026-05-02 09:59:54.743,-0.12748645,0.02941995000000121,9.8851032
2026-05-02 09:59:54.999,-0.2549729,-0.1274864499999988,9.8262633
2026-05-02 09:59:55.247,-0.196133,-0.1863263499999988,9.79684335
2026-05-02 09:59:55.481,-0.4511059,-0.5197524499999988,9.8458766
2026-05-02 09:59:55.740,-0.42168595,-0.39226599999999884,9.8262633
2026-05-02 09:59:56.009,-0.196133,-0.2255529499999988,9.80665
2026-05-02 09:59:56.239,-0.14709975,-0.23535959999999878,9.9831697
2026-05-02 09:59:56.479,0.0392266,0.1470997500000012,9.8262633
2026-05-02 09:59:56.738,-0.0784532,1.1985663167792674e-15,9.7870367
2026-05-02 09:59:57.003,-0.24516625,-0.10787314999999877,10.0420096
2026-05-02 09:59:57.240,-0.10787315,-0.04903324999999881,9.7478101
2026-05-02 09:59:57.482,-0.1569064,0.0294199500000012,9.8262633
2026-05-02 09:59:57.748,-0.2157463,-0.03922659999999879,9.8851032
2026-05-02 09:59:58.003,-0.04903325,0.27458620000000117,9.7085835
2026-05-02 09:59:58.238,0.196133,0.39226600000000117,9.83606995
2026-05-02 09:59:58.478,-0.28439285000000003,-0.29419949999999884,9.77723005
2026-05-02 09:59:58.741,-0.20593965,-0.08825984999999877,10.0420096
2026-05-02 09:59:59.002,0.1372931,0.5197524500000011,9.463417250000001
2026-05-02 09:59:59.238,-0.65704555,-0.7551120499999987,10.07142955
2026-05-02 09:59:59.482,-0.5099458,-0.5687856999999987,10.0812362
2026-05-02 09:59:59.744,-0.04903325,0.08825985000000122,9.9831697
2026-05-02 09:59:59.981,0.06864655,-0.2843928499999988,9.81645665
2026-05-02 10:00:00.241,-0.0196133,-0.14709974999999875,10.0616229
2026-05-02 10:00:00.481,-0.5687857000000001,0.3040061500000012,9.97336305
2026-05-02 10:00:00.738,-0.196133,0.009806650000001206,9.8458766
2026-05-02 10:00:00.981,-0.0784532,0.2059396500000012,9.7085835
2026-05-02 10:00:01.238,-0.20593965,0.06864655000000122,9.9635564
2026-05-02 10:00:01.485,-0.20593965,0.04903325000000119,9.69877685
2026-05-02 10:00:01.738,-0.14709975,-0.2647795499999988,10.0223963
2026-05-02 10:00:01.981,-0.28439285000000003,0.35303940000000117,9.5320638
2026-05-02 10:00:02.239,-0.3726527,0.06864655000000128,10.44408225
2026-05-02 10:00:02.480,0.16671305,-0.05883989999999886,9.32612415
2026-05-02 10:00:02.742,0.0392266,0.7649187000000013,9.89490985
2026-05-02 10:00:02.994,-0.1765197,-0.029419949999998782,9.9635564
2026-05-02 10:00:03.243,0.0196133,-0.35303939999999884,9.52225715
2026-05-02 10:00:03.481,0.196133,0.4020726500000012,9.8262633
2026-05-02 10:00:03.751,0.04903325,1.0100849500000013,9.8262633
2026-05-02 10:00:03.978,0.16671305,-0.6472388999999987,10.1400761
2026-05-02 10:00:04.240,0.5687857000000001,-0.47071919999999884,9.463417250000001
2026-05-02 10:00:04.476,0.0980665,-0.6472388999999987,10.24794925
2026-05-02 10:00:04.738,0.24516625,0.1765197000000012,9.5909037
2026-05-02 10:00:04.993,0.4903325,-0.5982056499999988,9.4732239
2026-05-02 10:00:05.241,-0.04903325,-0.4903324999999987,10.16949605
2026-05-02 10:00:05.479,-0.28439285000000003,0.1470997500000012,9.639936950000001
2026-05-02 10:00:05.742,-0.2941995,0.009806650000001246,10.16949605
2026-05-02 10:00:05.981,0.42168595,-0.4020726499999988,9.54187045
2026-05-02 10:00:06.239,-0.1765197,0.2549729000000012,9.83606995
2026-05-02 10:00:06.481,-2.8439285,-0.9414383999999988,10.4931155
2026-05-02 10:00:06.741,-0.14709975,-0.11767979999999882,9.71839015
2026-05-02 10:00:06.981,-0.34323275,-0.07845319999999878,9.97336305
2026-05-02 10:00:07.241,0.06864655,-0.4216859499999988,9.4339973
2026-05-02 10:00:07.482,-0.6864655,0.13729310000000125,10.1008495
2026-05-02 10:00:07.741,-0.32361945000000003,-0.3236194499999988,9.60071035
2026-05-02 10:00:07.992,-0.3726527,0.00980665000000122,9.95374975
2026-05-02 10:00:08.247,-0.16671305,0.09806650000000121,9.8851032
2026-05-02 10:00:08.482,-0.00980665,-0.2843928499999988,9.73800345
2026-05-02 10:00:08.743,-0.26477955,-0.1372930999999988,9.8654899
2026-05-02 10:00:09.003,-0.2941995,0.15690640000000122,9.81645665
2026-05-02 10:00:09.248,-0.196133,-0.029419949999998786,9.93413645
2026-05-02 10:00:09.485,-0.0980665,-0.24516624999999878,9.83606995
2026-05-02 10:00:09.745,-0.1176798,0.019613300000001208,9.8458766
2026-05-02 10:00:09.995,-0.1569064,-0.05883989999999878,9.95374975
2026-05-02 10:00:10.246,-0.16671305,-0.2451662499999988,9.7870367
2026-05-02 10:00:10.496,-0.0784532,-0.04903324999999881,9.7478101
2026-05-02 10:00:10.750,-0.18632635,0.0392266000000012,9.8458766
2026-05-02 10:00:10.997,-0.18632635,-0.21574629999999878,9.8654899
2026-05-02 10:00:11.252,-0.1765197,-0.0686465499999988,9.80665
2026-05-02 10:00:11.488,-0.20593965,0.00980665000000122,9.9635564
2026-05-02 10:00:11.752,-0.2157463,-0.16671304999999878,9.83606995
2026-05-02 10:00:12.004,-0.10787315,-0.16671304999999878,9.83606995
2026-05-02 10:00:12.253,-0.14709975,0.009806650000001204,9.83606995
2026-05-02 10:00:12.495,-0.18632635,-0.07845319999999881,9.7674234
2026-05-02 10:00:12.754,-0.1765197,-0.20593964999999878,9.89490985
2026-05-02 10:00:13.004,-0.0784532,-0.0686465499999988,9.80665
2026-05-02 10:00:13.250,-0.12748645,-0.0294199499999988,9.8262633
2026-05-02 10:00:13.494,-0.85317855,0.3628460500000012,9.85568325
2026-05-02 10:00:13.757,-0.99047165,0.5197524500000011,9.9047165
2026-05-02 10:00:13.991,-1.10815145,0.6570455500000013,9.69877685
2026-05-02 10:00:14.252,-1.46119085,0.6864655000000012,9.6693569
2026-05-02 10:00:14.492,-1.59848395,0.8433719000000012,9.62032365
2026-05-02 10:00:14.760,-1.52003075,0.8531785500000011,9.639936950000001
2026-05-02 10:00:15.003,-1.48080415,0.8237586000000012,9.79684335
2026-05-02 10:00:15.254,-1.5102241,0.8335652500000013,9.80665
2026-05-02 10:00:15.502,-1.6475172,0.9806650000000011,9.551677100000001
2026-05-02 10:00:15.759,-1.73577705,0.9316317500000013,9.8262633
2026-05-02 10:00:15.995,-1.61809725,0.6178189500000012,9.9243298
2026-05-02 10:00:16.256,-0.77472535,0.12748645000000117,9.52225715
2026-05-02 10:00:16.508,0.4511059,-0.5491723999999988,9.85568325
2026-05-02 10:00:16.758,0.36284605000000003,-0.049033249999998835,9.56148375
2026-05-02 10:00:17.008,-0.6472389000000001,0.12748645000000125,10.05181625
2026-05-02 10:00:17.261,-0.5099458,-0.28439284999999875,10.2773692
2026-05-02 10:00:17.510,0.3138128,-0.25497289999999884,9.2967042
2026-05-02 10:00:17.764,-0.00980665,0.09806650000000122,10.01258965
2026-05-02 10:00:18.008,-0.5099458,-0.11767979999999878,9.9047165
2026-05-02 10:00:18.261,-0.196133,-0.3236194499999988,9.6889702
2026-05-02 10:00:18.498,0.1176798,0.009806650000001214,9.9243298
2026-05-02 10:00:18.759,-0.1372931,0.04903325000000119,9.67916355
2026-05-02 10:00:19.004,-0.36284605000000003,-0.2843928499999988,10.05181625
2026-05-02 10:00:19.259,-0.02941995,-0.17651969999999878,9.87529655
2026-05-02 10:00:19.505,0.14709975,1.2033701897924109e-15,9.8262633
2026-05-02 10:00:19.760,-0.1569064,-0.24516624999999878,9.8262633
2026-05-02 10:00:20.004,-0.26477955,-0.1863263499999988,9.79684335
2026-05-02 10:00:20.269,-0.16671305,0.029419950000001197,9.7674234
2026-05-02 10:00:20.501,-0.0784532,-0.03922659999999879,9.8851032
2026-05-02 10:00:20.765,-0.14709975,-0.2745861999999988,9.87529655
2026-05-02 10:00:21.010,-0.20593965,-0.06864654999999878,9.9831697
2026-05-02 10:00:21.265,-0.10787315,-0.0784531999999988,9.80665
2026-05-02 10:00:21.501,-0.14709975,-0.1569063999999988,9.7478101
2026-05-02 10:00:21.765,-0.24516625,-0.0980664999999988,9.8262633
2026-05-02 10:00:22.008,-0.16671305,-0.0196132999999988,9.81645665
2026-05-02 10:00:22.263,-0.0980665,-0.1372930999999988,9.8851032
2026-05-02 10:00:22.506,-0.14709975,-0.11767979999999878,9.91452315
2026-05-02 10:00:22.772,-0.16671305,-0.09806649999999878,9.93413645
2026-05-02 10:00:23.011,-0.16671305,-0.1372930999999988,9.8458766
2026-05-02 10:00:23.265,-0.1176798,-0.1372930999999988,9.73800345
2026-05-02 10:00:23.508,-0.1569064,-0.06864654999999881,9.7281968
2026-05-02 10:00:23.767,-0.196133,-0.03922659999999879,9.8654899
2026-05-02 10:00:24.009,-0.196133,-0.10787314999999878,9.9635564
2026-05-02 10:00:24.275,-0.12748645,-0.14709974999999878,9.93413645
2026-05-02 10:00:24.506,-0.06864655,-0.1274864499999988,9.8654899
2026-05-02 10:00:24.771,-0.1176798,-0.1470997499999988,9.7674234
2026-05-02 10:00:25.013,-0.2353596,-0.0882598499999988,9.75761675
2026-05-02 10:00:25.267,-0.24516625,1.2093750310588401e-15,9.87529655
2026-05-02 10:00:25.511,-0.10787315,-0.0784531999999988,9.87529655
2026-05-02 10:00:25.773,-0.04903325,-0.19613299999999878,9.8851032
2026-05-02 10:00:26.013,-0.12748645,-0.1470997499999988,9.8654899
2026-05-02 10:00:26.275,-0.22555295,-0.0980664999999988,9.8262633
2026-05-02 10:00:26.510,-0.2549729,-0.03922659999999879,9.8851032
2026-05-02 10:00:26.769,-0.1176798,-0.0980664999999988,9.8262633
2026-05-02 10:00:27.017,-0.00980665,-0.1765196999999988,9.7674234
2026-05-02 10:00:27.274,-0.1372931,-0.1078731499999988,9.8654899
2026-05-02 10:00:27.512,-0.30400615,-0.05883989999999879,9.9047165
2026-05-02 10:00:27.773,-0.28439285000000003,-0.04903324999999878,9.97336305
2026-05-02 10:00:28.015,0.0,-0.1667130499999988,9.80665
2026-05-02 10:00:28.275,0.0588399,-0.1569063999999988,9.6889702
2026-05-02 10:00:28.511,-0.24516625,-0.1274864499999988,9.80665
2026-05-02 10:00:28.775,-0.42168595,-0.009806649999998791,9.87529655
2026-05-02 10:00:29.015,-0.20593965,-0.029419949999998786,9.9047165
2026-05-02 10:00:29.280,0.06864655,-0.1176797999999988,9.85568325
2026-05-02 10:00:29.515,-0.0196133,-0.22555294999999878,9.9047165
2026-05-02 10:00:29.776,-0.26477955,-0.14709974999999878,9.9243298
2026-05-02 10:00:30.019,-0.2941995,-0.03922659999999881,9.7281968
2026-05-02 10:00:30.278,-0.1765197,-0.039226599999998814,9.7085835
2026-05-02 10:00:30.514,-0.0392266,-0.1470997499999988,9.8262633
2026-05-02 10:00:30.777,-0.12748645,-0.08825984999999878,9.93413645
2026-05-02 10:00:31.016,-0.24516625,-0.09806649999999877,10.05181625
2026-05-02 10:00:31.280,-0.12748645,-0.1569063999999988,9.8851032
2026-05-02 10:00:31.514,-0.06864655,-0.1569063999999988,9.67916355
2026-05-02 10:00:31.775,-0.1765197,-0.08825984999999882,9.71839015
2026-05-02 10:00:32.024,-0.2549729,-0.0882598499999988,9.77723005
2026-05-02 10:00:32.279,-0.2157463,0.009806650000001227,10.002783
2026-05-02 10:00:32.517,-0.0980665,-0.07845319999999878,10.0420096
2026-05-02 10:00:32.776,-0.0196133,-0.3236194499999988,9.81645665
2026-05-02 10:00:33.019,-0.06864655,-0.1961329999999988,9.6693569
2026-05-02 10:00:33.280,-0.2745862,0.049033250000001194,9.7085835
2026-05-02 10:00:33.520,-0.38245935,0.05883990000000123,10.002783
2026-05-02 10:00:33.779,-0.1765197,-0.14709974999999878,9.93413645
2026-05-02 10:00:34.023,0.08825985,-0.2059396499999988,9.7870367
2026-05-02 10:00:34.279,0.00980665,-0.1176797999999988,9.8654899
2026-05-02 10:00:34.518,-0.32361945000000003,-0.1176797999999988,9.87529655
2026-05-02 10:00:34.782,-0.4118793,-0.0882598499999988,9.79684335
2026-05-02 10:00:35.028,-0.10787315,1.188958570752981e-15,9.7085835
2026-05-02 10:00:35.281,0.0392266,-0.05883989999999879,9.9047165
2026-05-02 10:00:35.521,-0.1372931,-0.20593964999999878,10.0223963
2026-05-02 10:00:35.788,-0.2157463,-0.2353595999999988,9.79684335
2026-05-02 10:00:36.026,-0.16671305,-0.04903324999999881,9.7674234
2026-05-02 10:00:36.283,-0.1765197,0.0490332500000012,9.8262633
2026-05-02 10:00:36.524,-0.2157463,-0.14709974999999878,9.93413645
2026-05-02 10:00:36.784,-0.12748645,-0.21574629999999878,9.8654899
2026-05-02 10:00:37.023,0.04903325,1.19496341201941e-15,9.75761675
2026-05-02 10:00:37.283,-0.10787315,-0.11767979999999878,9.9243298
2026-05-02 10:00:37.525,-0.2157463,-0.1765196999999988,9.79684335
2026-05-02 10:00:37.783,-0.02941995,0.1470997500000012,9.83606995
2026-05-02 10:00:38.035,0.2549729,0.06864655000000121,9.9047165
2026-05-02 10:00:38.297,0.18632635,-0.3040061499999988,9.75761675
2026-05-02 10:00:38.528,-0.12748645,-0.11767979999999878,9.91452315
2026-05-02 10:00:38.789,-0.22555295,0.31381280000000117,9.9439431
2026-05-02 10:00:39.031,0.0392266,-0.0980664999999988,9.8458766
2026-05-02 10:00:39.285,0.20593965,-0.4805258499999988,9.6301303
2026-05-02 10:00:39.528,0.00980665,1.2057721262989826e-15,9.8458766
2026-05-02 10:00:39.786,-0.0196133,0.24516625000000122,9.97336305
2026-05-02 10:00:40.027,0.0392266,-0.41187929999999884,9.8654899
2026-05-02 10:00:40.287,-0.02941995,-0.2647795499999988,9.8851032
2026-05-02 10:00:40.524,-0.1372931,0.23535960000000122,9.8654899
2026-05-02 10:00:40.788,0.0392266,-0.2255529499999988,9.67916355
2026-05-02 10:00:41.033,0.14709975,-0.31381279999999884,9.7674234
2026-05-02 10:00:41.287,-0.0392266,0.23535960000000122,10.0616229
2026-05-02 10:00:41.529,-0.10787315,-0.12748644999999878,9.93413645
2026-05-02 10:00:41.789,-0.10787315,-0.4216859499999988,9.7674234
2026-05-02 10:00:42.036,-0.12748645,0.0588399000000012,9.7870367
2026-05-02 10:00:42.295,-0.06864655,-0.07845319999999881,9.7281968
2026-05-02 10:00:42.530,0.04903325,-0.16671304999999878,9.91452315
2026-05-02 10:00:42.790,-0.00980665,0.13729310000000122,9.9831697
2026-05-02 10:00:43.031,-0.20593965,-0.41187929999999884,9.8262633
2026-05-02 10:00:43.289,-0.2157463,-0.21574629999999878,9.81645665
2026-05-02 10:00:43.531,-0.0784532,0.27458620000000117,9.73800345
2026-05-02 10:00:43.791,-0.00980665,-0.31381279999999884,9.7870367
2026-05-02 10:00:44.040,-0.0392266,-0.15690639999999878,9.9831697
2026-05-02 10:00:44.291,-0.12748645,0.1372931000000012,9.8262633
2026-05-02 10:00:44.532,-0.1765197,-0.37265269999999884,9.7674234
2026-05-02 10:00:44.793,-0.16671305,0.15690640000000122,10.002783
2026-05-02 10:00:45.034,-0.08825985,-0.07845319999999882,9.69877685
2026-05-02 10:00:45.291,-0.12748645,-0.4609125499999988,9.80665
2026-05-02 10:00:45.529,-0.1176798,0.5001391500000013,9.9831697
2026-05-02 10:00:45.793,0.0,-0.37265269999999884,9.639936950000001
2026-05-02 10:00:46.037,-0.196133,-0.30400614999999875,10.1400761
2026-05-02 10:00:46.293,-0.2157463,0.4412992500000012,9.7478101
2026-05-02 10:00:46.534,-0.1569064,-0.5197524499999988,9.6497436
2026-05-02 10:00:46.794,-0.10787315,1.2418011738975576e-15,10.1400761
2026-05-02 10:00:47.038,0.0784532,0.09806650000000118,9.610517
2026-05-02 10:00:47.294,-0.16671305,-0.5589790499999987,9.99297635
2026-05-02 10:00:47.534,-0.1765197,0.2647795500000012,9.93413645
2026-05-02 10:00:47.794,-0.18632635,-0.09806649999999884,9.5712904
2026-05-02 10:00:48.040,-0.2353596,-0.42168594999999875,10.03220295
2026-05-02 10:00:48.297,-0.02941995,0.1274864500000012,9.6301303
2026-05-02 10:00:48.536,-0.04903325,-0.13729309999999878,9.9047165
2026-05-02 10:00:48.795,-0.04903325,-0.18632634999999878,10.091042850000001
2026-05-02 10:00:49.038,-0.08825985,-0.039226599999998814,9.6693569
2026-05-02 10:00:49.294,-0.3334261,-0.18632634999999878,10.0223963
2026-05-02 10:00:49.538,-0.16671305,-0.1274864499999988,9.7085835
2026-05-02 10:00:49.802,0.04903325,-0.04903324999999883,9.610517
2026-05-02 10:00:50.044,0.0,-0.14709974999999875,10.0420096
2026-05-02 10:00:50.296,-0.16671305,0.03922660000000122,9.95374975
2026-05-02 10:00:50.534,-0.22555295,-0.16671304999999878,9.81645665
2026-05-02 10:00:50.798,-0.10787315,-0.2843928499999988,9.8262633
2026-05-02 10:00:51.040,0.00980665,0.11767980000000121,9.7478101
2026-05-02 10:00:51.324,-0.10787315,-0.1274864499999988,9.83606995
2026-05-02 10:00:51.534,-0.2549729,-0.10787314999999877,10.091042850000001
2026-05-02 10:00:51.798,-0.10787315,-0.049033249999998814,9.69877685
2026-05-02 10:00:52.047,0.0,-0.20593964999999878,9.8262633
2026-05-02 10:00:52.295,-0.08825985,-0.019613299999998782,9.9439431
2026-05-02 10:00:52.540,-0.196133,-0.04903324999999881,9.77723005
2026-05-02 10:00:52.798,-0.16671305,-0.15690639999999878,9.9635564
2026-05-02 10:00:53.040,0.0,-0.05883989999999881,9.71839015
2026-05-02 10:00:53.302,-0.04903325,-0.1863263499999988,9.7870367
2026-05-02 10:00:53.540,-0.22555295,-0.03922659999999878,9.9831697
2026-05-02 10:00:53.799,-0.14709975,1.2033701897924109e-15,9.8262633
2026-05-02 10:00:54.041,0.00980665,-0.21574629999999878,9.81645665
2026-05-02 10:00:54.300,-0.04903325,-0.1569063999999988,9.83606995
2026-05-02 10:00:54.540,-0.24516625,0.09806650000000121,9.85568325
2026-05-02 10:00:54.797,-0.20593965,-0.0980664999999988,9.87529655
2026-05-02 10:00:55.042,0.0,-0.29419949999999884,9.77723005
2026-05-02 10:00:55.297,0.00980665,-0.0686465499999988,9.87529655
2026-05-02 10:00:55.538,-0.16671305,-0.05883989999999878,9.95374975
2026-05-02 10:00:55.801,-0.22555295,-0.16671304999999878,9.8458766
2026-05-02 10:00:56.052,-0.0784532,-0.0980664999999988,9.7674234
2026-05-02 10:00:56.301,-0.0196133,-0.1078731499999988,9.79684335
2026-05-02 10:00:56.542,-0.16671305,-0.1470997499999988,9.8851032
2026-05-02 10:00:56.803,-0.14709975,-0.08825984999999878,9.95374975
2026-05-02 10:00:57.046,-0.0784532,-0.19613299999999878,9.85568325
2026-05-02 10:00:57.312,-0.0392266,-0.1372930999999988,9.7674234
2026-05-02 10:00:57.547,-0.1569064,-0.03922659999999879,9.85568325
2026-05-02 10:00:57.804,-0.22555295,-0.1470997499999988,9.8458766
2026-05-02 10:00:58.044,-0.10787315,-0.19613299999999878,9.8262633
2026-05-02 10:00:58.302,-0.00980665,-0.16671304999999878,9.8458766
2026-05-02 10:00:58.544,-0.12748645,-0.1078731499999988,9.8458766
2026-05-02 10:00:58.803,-0.1765197,-0.0784531999999988,9.89490985
2026-05-02 10:00:59.049,-0.1765197,-0.22555294999999878,9.87529655
2026-05-02 10:00:59.302,-0.0980665,-0.2157462999999988,9.80665
2026-05-02 10:00:59.545,-0.06864655,-0.009806649999998803,9.77723005
2026-05-02 10:00:59.804,-0.18632635,-0.0980664999999988,9.83606995
2026-05-02 10:01:00.045,-0.12748645,-0.2647795499999988,9.87529655
2026-05-02 10:01:00.301,-0.0588399,-0.10787314999999878,9.9047165
2026-05-02 10:01:00.542,-0.1372931,-0.1470997499999988,9.83606995
2026-05-02 10:01:00.806,-0.1176798,-0.09806649999999878,9.9047165
2026-05-02 10:01:01.058,-0.20593965,-0.17651969999999878,9.81645665
2026-05-02 10:01:01.305,-0.06864655,-0.3040061499999988,9.73800345
2026-05-02 10:01:01.546,-0.04903325,1.2141789040719834e-15,9.91452315
2026-05-02 10:01:01.806,-0.16671305,-0.17651969999999878,9.87529655
2026-05-02 10:01:02.054,-0.0784532,-0.19613299999999878,9.9831697
2026-05-02 10:01:02.306,-0.1765197,-0.0882598499999988,9.7870367
2026-05-02 10:01:02.547,-0.1372931,-0.41187929999999884,9.65955025
2026-05-02 10:01:02.815,-0.08825985,0.07845320000000122,9.95374975
2026-05-02 10:01:03.056,-0.0196133,-0.1176797999999988,9.7478101
2026-05-02 10:01:03.307,-0.196133,-0.32361944999999875,10.1400761
2026-05-02 10:01:03.549,-0.22555295,-0.1274864499999988,9.6889702
2026-05-02 10:01:03.807,-0.0784532,-0.1765196999999988,9.6693569
2026-05-02 10:01:04.050,0.0,-0.06864654999999878,9.97336305
2026-05-02 10:01:04.310,-0.06864655,-0.3432327499999988,9.639936950000001
2026-05-02 10:01:04.550,-0.2745862,0.04903325000000125,10.18910935
2026-05-02 10:01:04.809,-0.0588399,-0.09806649999999882,9.67916355
2026-05-02 10:01:05.059,0.0,-0.2647795499999988,9.8851032
2026-05-02 10:01:05.309,-0.16671305,-0.3432327499999988,9.7281968
2026-05-02 10:01:05.546,-0.2157463,0.06864655000000121,9.85568325
2026-05-02 10:01:05.810,-0.0784532,0.04903325000000123,10.0223963
2026-05-02 10:01:06.056,0.0980665,-0.3628460499999988,9.7870367
2026-05-02 10:01:06.310,-0.1765197,-0.3236194499999988,9.8654899
2026-05-02 10:01:06.547,-0.30400615,0.20593965000000122,9.8262633
2026-05-02 10:01:06.807,-0.12748645,-0.0882598499999988,9.85568325
2026-05-02 10:01:07.049,0.0980665,-0.4020726499999988,9.81645665
2026-05-02 10:01:07.307,-0.10787315,-0.1667130499999988,9.79684335
2026-05-02 10:01:07.547,-0.34323275,0.08825985000000122,9.97336305
2026-05-02 10:01:07.808,-0.12748645,-0.21574629999999878,9.8458766
2026-05-02 10:01:08.063,0.0980665,-0.2843928499999988,9.7478101
2026-05-02 10:01:08.312,-0.1569064,-0.0686465499999988,9.87529655
2026-05-02 10:01:08.551,-0.3726527,-0.04903324999999879,9.8654899
2026-05-02 10:01:08.813,-0.06864655,-0.3432327499999988,9.77723005
2026-05-02 10:01:09.061,0.06864655,-0.039226599999998786,9.9047165
2026-05-02 10:01:09.313,-0.1372931,0.07845320000000121,9.87529655
2026-05-02 10:01:09.550,-0.36284605000000003,-0.2647795499999988,9.9439431
2026-05-02 10:01:09.812,-0.08825985,-0.35303939999999884,9.6497436
2026-05-02 10:01:10.066,0.0784532,0.1274864500000012,9.7674234
2026-05-02 10:01:10.312,-0.02941995,0.01961330000000123,10.03220295
2026-05-02 10:01:10.553,-0.20593965,-0.45110589999999884,9.87529655
2026-05-02 10:01:10.815,-0.2157463,-0.1569063999999988,9.83606995
2026-05-02 10:01:11.062,-0.0588399,0.08825985000000118,9.7281968
2026-05-02 10:01:11.312,0.0,-0.1470997499999988,9.83606995
2026-05-02 10:01:11.553,-0.06864655,-0.3236194499999988,9.9047165
2026-05-02 10:01:11.813,-0.1569064,-0.1372930999999988,9.8851032
2026-05-02 10:01:12.060,-0.12748645,-0.0980664999999988,9.83606995
2026-05-02 10:01:12.313,-0.1569064,-0.1569063999999988,9.87529655
2026-05-02 10:01:12.551,-0.04903325,-0.1667130499999988,9.75761675
2026-05-02 10:01:12.812,-0.0392266,-0.0784531999999988,9.8654899
2026-05-02 10:01:13.055,-0.0980665,-0.17651969999999878,9.89490985
2026-05-02 10:01:13.314,-0.16671305,-0.15690639999999878,9.91452315
2026-05-02 10:01:13.552,-0.0980665,-0.1765196999999988,9.80665
2026-05-02 10:01:13.814,-0.0980665,-0.2157462999999988,9.79684335
2026-05-02 10:01:14.060,-0.04903325,-0.19613299999999878,9.81645665
2026-05-02 10:01:14.315,-0.12748645,-0.0686465499999988,9.8458766
2026-05-02 10:01:14.556,-0.1569064,-0.03922659999999878,9.95374975
2026-05-02 10:01:14.812,0.0,-0.0980664999999988,9.80665
2026-05-02 10:01:15.064,-0.0196133,-0.35303939999999884,9.7674234
2026-05-02 10:01:15.318,-0.2157463,-0.14709974999999878,9.97336305
2026-05-02 10:01:15.559,-0.1765197,0.019613300000001197,9.7674234
2026-05-02 10:01:15.817,0.0,-0.2549728999999988,9.85568325
2026-05-02 10:01:16.058,0.0196133,-0.22555294999999878,9.83606995
2026-05-02 10:01:16.315,-0.12748645,0.03922660000000121,9.8851032
2026-05-02 10:01:16.563,-0.2353596,-0.2549728999999988,9.9243298
2026-05-02 10:01:16.813,-0.0784532,-0.19613299999999878,9.8262633
2026-05-02 10:01:17.061,0.0196133,0.1274864500000012,9.7478101
2026-05-02 10:01:17.317,-0.0980665,-0.1765196999999988,9.77723005
2026-05-02 10:01:17.557,-0.18632635,-0.3138127999999988,10.002783
2026-05-02 10:01:17.814,-0.10787315,-0.0588398999999988,9.8458766
2026-05-02 10:01:18.066,0.0,0.0686465500000012,9.77723005
2026-05-02 10:01:18.316,-0.2745862,-0.1470997499999988,9.85568325
2026-05-02 10:01:18.559,-0.48052585000000003,-0.22555294999999878,9.8654899
2026-05-02 10:01:18.818,-0.1569064,-0.05883989999999879,9.87529655
2026-05-02 10:01:19.068,-0.61781895,-0.009806649999998803,9.77723005
2026-05-02 10:01:19.318,-0.588399,-0.1765196999999988,9.7870367
2026-05-02 10:01:19.559,-0.6668522,-0.14709974999999878,9.95374975
2026-05-02 10:01:19.819,-0.1372931,-0.1569063999999988,9.79684335
2026-05-02 10:01:20.064,-0.2157463,-0.2745861999999988,9.9831697
2026-05-02 10:01:20.319,0.22555295,-0.1274864499999988,9.69877685
2026-05-02 10:01:20.558,0.79433865,0.11767980000000124,10.1008495
2026-05-02 10:01:20.823,0.3726527,-0.16671304999999886,9.4928372
2026-05-02 10:01:21.068,0.2745862,0.0588399000000012,9.83606995
2026-05-02 10:01:21.316,0.1372931,-0.029419949999998744,10.24794925
2026-05-02 10:01:21.556,0.2549729,-0.05883989999999883,9.5712904
2026-05-02 10:01:21.819,0.3138128,-0.2843928499999988,10.0812362
2026-05-02 10:01:22.062,0.63743225,0.049033250000001166,9.54187045
2026-05-02 10:01:22.319,0.5687857000000001,0.2941995000000012,9.89490985
2026-05-02 10:01:22.560,0.75511205,-0.12748644999999875,10.05181625
2026-05-02 10:01:22.822,0.00980665,-0.2843928499999988,9.551677100000001
2026-05-02 10:01:23.062,0.3138128,0.09806650000000124,10.05181625
2026-05-02 10:01:23.322,0.30400615,-0.019613299999998796,9.83606995
2026-05-02 10:01:23.561,0.10787315,-0.1274864499999988,9.7870367
2026-05-02 10:01:23.820,0.32361945000000003,-0.15690639999999875,10.198916
2026-05-02 10:01:24.068,0.06864655,-0.009806649999998864,9.2770909
2026-05-02 10:01:24.320,0.2157463,-0.019613299999998765,10.091042850000001
2026-05-02 10:01:24.561,0.3334261,-0.07845319999999878,10.03220295
2026-05-02 10:01:24.821,0.32361945000000003,-0.25497289999999884,9.5320638
2026-05-02 10:01:25.070,0.1372931,0.15690640000000125,10.1008495
2026-05-02 10:01:25.318,0.4314926,-0.09806649999999882,9.610517
2026-05-02 10:01:25.561,0.2353596,-0.20593964999999878,10.0420096
2026-05-02 10:01:25.823,-0.1372931,-0.02941994999999881,9.71839015
2026-05-02 10:01:26.066,0.2549729,-0.04903324999999881,9.71839015
2026-05-02 10:01:26.321,0.51975245,-0.049033249999998745,10.2381426
2026-05-02 10:01:26.562,0.12748645,-0.27458619999999884,9.5712904
2026-05-02 10:01:26.827,-0.0980665,-0.0784531999999988,9.85568325
2026-05-02 10:01:27.078,0.53936575,0.15690640000000122,10.01258965
2026-05-02 10:01:27.322,0.6080123,-0.2157462999999988,9.6889702
2026-05-02 10:01:27.562,0.16671305,-0.18632634999999878,9.83606995
2026-05-02 10:01:27.822,0.46091255,0.13729310000000122,9.95374975
2026-05-02 10:01:28.072,0.46091255,-0.009806649999998803,9.77723005
2026-05-02 10:01:28.322,0.588399,-0.2549728999999988,9.9439431
2026-05-02 10:01:28.564,-0.08825985,-0.05883989999999881,9.7674234
2026-05-02 10:01:28.824,0.7453054,0.18632635000000122,9.89490985
2026-05-02 10:01:29.074,0.7649187,-0.2255529499999988,9.7085835
2026-05-02 10:01:29.323,-0.14709975,-0.39226599999999884,9.8458766
2026-05-02 10:01:29.564,0.36284605000000003,0.18632635000000122,9.9831697
2026-05-02 10:01:29.825,0.4707192,1.1973653485259817e-15,9.77723005
2026-05-02 10:01:30.071,0.4118793,-0.23535959999999878,9.8458766
2026-05-02 10:01:30.323,0.50013915,-0.25497289999999884,9.75761675
2026-05-02 10:01:30.562,0.6276256,0.19613300000000122,9.81645665
2026-05-02 10:01:30.827,0.5295591,-0.13729309999999878,9.9047165
2026-05-02 10:01:31.074,-0.1765197,-0.3236194499999988,9.81645665
2026-05-02 10:01:31.330,0.20593965,0.1372931000000012,9.87529655
2026-05-02 10:01:31.572,0.63743225,-0.019613299999998782,9.9635564
2026-05-02 10:01:31.829,0.20593965,-0.27458619999999884,9.65955025
2026-05-02 10:01:32.077,-0.0196133,-0.029419949999998803,9.77723005
2026-05-02 10:01:32.324,0.1765197,0.05883990000000123,10.05181625
2026-05-02 10:01:32.567,0.36284605000000003,-0.1470997499999988,9.7870367
2026-05-02 10:01:32.826,-0.02941995,-0.1863263499999988,9.7281968
2026-05-02 10:01:33.073,0.4314926,0.019613300000001214,9.9243298
2026-05-02 10:01:33.325,0.53936575,0.029419950000001208,9.8458766
2026-05-02 10:01:33.571,0.3334261,-0.1961329999999988,9.77723005
2026-05-02 10:01:33.825,0.20593965,-0.2549728999999988,9.9831697
2026-05-02 10:01:34.071,0.14709975,0.2059396500000012,9.69877685
2026-05-02 10:01:34.326,0.3334261,-0.05883989999999881,9.7478101
2026-05-02 10:01:34.566,0.10787315,-0.2941994999999988,10.03220295
2026-05-02 10:01:34.826,0.24516625,0.1470997500000012,9.8851032
2026-05-02 10:01:35.072,0.4511059,-0.06864654999999882,9.639936950000001
2026-05-02 10:01:35.323,0.20593965,-0.2941994999999988,10.0223963
2026-05-02 10:01:35.563,0.2353596,-0.019613299999998793,9.8458766
2026-05-02 10:01:35.827,0.2745862,0.10787315000000121,9.79684335
2026-05-02 10:01:36.076,0.04903325,-0.1470997499999988,9.83606995
2026-05-02 10:01:36.326,0.0392266,-0.25497289999999884,9.50264385
2026-05-02 10:01:36.566,0.6080123,0.08825985000000125,10.20872265
2026-05-02 10:01:36.827,-0.0196133,-0.05883989999999879,9.87529655
2026-05-02 10:01:37.069,-0.06864655,-0.2157462999999988,9.62032365
2026-05-02 10:01:37.328,0.2941995,-0.009806649999998772,10.03220295
2026-05-02 10:01:37.568,0.55897905,0.009806650000001194,9.73800345
2026-05-02 10:01:37.828,0.14709975,-0.15690639999999878,9.9635564
2026-05-02 10:01:38.075,0.0,-0.2647795499999988,9.71839015
2026-05-02 10:01:38.329,0.30400615,0.1372931000000012,9.7478101
2026-05-02 10:01:38.568,0.22555295,-0.029419949999998782,9.97336305
2026-05-02 10:01:38.831,0.14709975,-0.45110589999999884,9.9439431
2026-05-02 10:01:39.072,-0.00980665,0.009806650000001194,9.73800345
2026-05-02 10:01:39.330,0.0784532,0.1274864500000012,9.6889702
2026-05-02 10:01:39.568,0.0588399,-0.2745861999999988,9.93413645
2026-05-02 10:01:39.828,0.2157463,-0.21574629999999878,9.87529655
2026-05-02 10:01:40.071,0.22555295,0.13729310000000122,9.9635564
2026-05-02 10:01:40.327,-0.0588399,-0.1765196999999988,9.77723005
2026-05-02 10:01:40.569,-0.1176798,-0.3628460499999988,9.60071035
2026-05-02 10:01:40.832,0.1765197,0.18632635000000125,10.14988275
2026-05-02 10:01:41.076,0.3138128,0.10787315000000121,9.8262633
2026-05-02 10:01:41.331,-0.00980665,-0.4805258499999988,9.77723005
2026-05-02 10:01:41.570,-0.0588399,-0.1667130499999988,9.75761675
2026-05-02 10:01:41.832,0.3530394,0.2353596000000012,9.80665
2026-05-02 10:01:42.077,0.1372931,-0.15690639999999875,10.03220295
2026-05-02 10:01:42.330,-0.00980665,-0.27458619999999884,9.79684335
2026-05-02 10:01:42.570,-0.04903325,1.2069730945522684e-15,9.85568325
2026-05-02 10:01:42.834,0.2157463,-0.1274864499999988,9.639936950000001
2026-05-02 10:01:43.071,0.1372931,-0.22555294999999878,10.091042850000001
2026-05-02 10:01:43.330,-0.06864655,0.07845320000000122,9.9243298
2026-05-02 10:01:43.571,0.0980665,-0.04903324999999881,9.7674234
2026-05-02 10:01:43.829,0.1176798,-0.3824593499999988,9.77723005
2026-05-02 10:01:44.076,0.16671305,-0.04903324999999881,9.7281968
2026-05-02 10:01:44.333,-0.02941995,0.16671305000000122,10.0616229
2026-05-02 10:01:44.580,-0.16671305,-0.1470997499999988,9.87529655
2026-05-02 10:01:44.832,0.04903325,-0.3824593499999988,9.62032365
2026-05-02 10:01:45.084,0.18632635,-0.0882598499999988,9.77723005
2026-05-02 10:01:45.336,-0.0588399,0.21574630000000122,9.8654899
2026-05-02 10:01:45.573,-0.34323275,-0.14709974999999875,10.03220295
2026-05-02 10:01:45.832,-0.0588399,-0.4216859499999988,9.77723005
2026-05-02 10:01:46.077,0.2549729,-0.02941994999999881,9.69877685
2026-05-02 10:01:46.332,0.02941995,0.17651970000000122,9.83606995
2026-05-02 10:01:46.572,-0.3138128,-0.18632634999999878,10.0223963
2026-05-02 10:01:46.833,-0.18632635,-0.2941994999999988,9.83606995
2026-05-02 10:01:47.081,0.0980665,-0.09806649999999882,9.69877685
2026-05-02 10:01:47.332,0.18632635,-0.05883989999999878,9.97336305
2026-05-02 10:01:47.572,-0.196133,0.029419950000001208,9.83606995
2026-05-02 10:01:47.830,-0.3138128,-0.16671304999999878,9.85568325
2026-05-02 10:01:48.076,-0.0196133,-0.3236194499999988,9.8262633
2026-05-02 10:01:48.331,0.10787315,1.1961643802726959e-15,9.7674234
2026-05-02 10:01:48.572,-0.1176798,0.06864655000000122,9.95374975
2026-05-02 10:01:48.836,-0.24516625,-0.21574629999999878,9.93413645
2026-05-02 10:01:49.076,-0.1372931,-0.2451662499999988,9.6301303
2026-05-02 10:01:49.333,-0.0980665,-0.029419949999998793,9.8654899
2026-05-02 10:01:49.572,0.12748645,-0.03922659999999879,9.89490985
2026-05-02 10:01:49.833,-0.1569064,-0.24516624999999878,9.9439431
2026-05-02 10:01:50.077,-0.3138128,-0.0980664999999988,9.79684335
2026-05-02 10:01:50.334,0.0588399,-0.029419949999998803,9.7674234
2026-05-02 10:01:50.571,0.12748645,-0.13729309999999878,9.9047165
2026-05-02 10:01:50.833,-0.28439285000000003,-0.14709974999999878,9.89490985
2026-05-02 10:01:51.075,-0.4314926,-0.0686465499999988,9.85568325
2026-05-02 10:01:51.330,0.1176798,-0.0882598499999988,9.7478101
2026-05-02 10:01:51.576,-0.0784532,-0.0784531999999988,9.8458766
2026-05-02 10:01:51.833,-0.18632635,-0.1274864499999988,9.8851032
2026-05-02 10:01:52.078,0.0392266,-0.1176797999999988,9.8654899
2026-05-02 10:01:52.334,0.24516625,-0.16671304999999878,9.89490985
2026-05-02 10:01:52.575,-0.10787315,-0.0784531999999988,9.80665
2026-05-02 10:01:52.833,-0.20593965,-0.0686465499999988,9.8458766
2026-05-02 10:01:53.087,0.02941995,-0.17651969999999878,9.81645665
2026-05-02 10:01:53.341,0.1176798,-0.19613299999999878,9.9047165
2026-05-02 10:01:53.574,-0.02941995,1.2117769675654117e-15,9.89490985
2026-05-02 10:01:53.834,-0.24516625,-0.0588398999999988,9.79684335
2026-05-02 10:01:54.084,-0.16671305,-0.2157462999999988,9.77723005
2026-05-02 10:01:54.333,0.1569064,-0.1470997499999988,9.7870367
2026-05-02 10:01:54.578,0.0784532,-0.019613299999998772,10.0223963
2026-05-02 10:01:54.837,-0.3726527,-0.0686465499999988,9.79684335
2026-05-02 10:01:55.080,-0.2549729,-0.2647795499999988,9.7870367
2026-05-02 10:01:55.334,0.196133,-0.1176797999999988,9.75761675
2026-05-02 10:01:55.574,0.0784532,0.0392266000000012,9.8458766
2026-05-02 10:01:55.834,-0.38245935,-0.20593964999999878,10.01258965
2026-05-02 10:01:56.081,-0.2353596,-0.2451662499999988,9.79684335
2026-05-02 10:01:56.334,0.1372931,0.04903325000000119,9.65955025
2026-05-02 10:01:56.576,-0.02941995,-0.00980664999999879,9.8851032
2026-05-02 10:01:56.835,-0.20593965,-0.2941994999999988,9.91452315
2026-05-02 10:01:57.089,-0.1372931,-0.18632634999999878,9.83606995
2026-05-02 10:01:57.336,-0.0784532,0.1372931000000012,9.80665
2026-05-02 10:01:57.576,-0.0392266,-0.09806649999999878,9.9243298
2026-05-02 10:01:57.838,0.0,-0.41187929999999884,9.8458766
2026-05-02 10:01:58.089,-0.18632635,-0.0294199499999988,9.80665
2026-05-02 10:01:58.337,-0.2549729,0.23535960000000122,9.9243298
2026-05-02 10:01:58.578,0.0,-0.33342609999999884,9.7674234
2026-05-02 10:01:58.836,-0.02941995,-0.41187929999999884,9.81645665
2026-05-02 10:01:59.082,-0.24516625,0.16671305000000122,9.87529655
2026-05-02 10:01:59.336,-0.18632635,0.009806650000001213,9.9047165
2026-05-02 10:01:59.578,-0.08825985,-0.4609125499999988,9.8851032
2026-05-02 10:01:59.835,-0.0588399,-0.11767979999999882,9.67916355
2026-05-02 10:02:00.078,-0.12748645,0.08825985000000121,9.85568325
2026-05-02 10:02:00.336,-0.22555295,-0.10787314999999877,10.0616229
2026-05-02 10:02:00.574,-0.08825985,-0.37265269999999884,9.6301303
2026-05-02 10:02:00.836,-0.1765197,-0.05883989999999879,9.89490985
2026-05-02 10:02:01.082,-0.0196133,0.08825985000000121,9.8654899
2026-05-02 10:02:01.337,-0.0196133,-0.23535959999999878,9.83606995
2026-05-02 10:02:01.577,-0.26477955,-0.24516624999999878,9.83606995
2026-05-02 10:02:01.836,-0.2353596,0.0588399000000012,9.7870367
2026-05-02 10:02:02.082,0.02941995,-0.08825984999999878,9.91452315
2026-05-02 10:02:02.342,-0.00980665,-0.24516624999999878,9.95374975
2026-05-02 10:02:02.578,-0.392266,-0.0980664999999988,9.7674234
2026-05-02 10:02:02.836,-0.2353596,-0.1176797999999988,9.7674234
2026-05-02 10:02:03.083,0.16671305,-0.009806649999998784,9.93413645
2026-05-02 10:02:03.338,0.0,-0.17651969999999878,9.8654899
2026-05-02 10:02:03.579,-0.4511059,-0.1470997499999988,9.87529655
2026-05-02 10:02:03.838,-0.2157463,-0.0784531999999988,9.8262633
2026-05-02 10:02:04.082,0.1765197,-0.0686465499999988,9.79684335
2026-05-02 10:02:04.338,-0.12748645,-0.18632634999999878,10.002783
2026-05-02 10:02:04.578,-0.3530394,-0.0980664999999988,9.77723005
2026-05-02 10:02:04.842,-0.12748645,-0.08825984999999882,9.73800345
2026-05-02 10:02:05.085,0.16671305,-0.14709974999999878,9.9439431
2026-05-02 10:02:05.335,-0.1176798,-0.0882598499999988,9.8654899
2026-05-02 10:02:05.576,-0.44129925000000003,-0.16671304999999878,9.85568325
2026-05-02 10:02:05.838,-0.0980665,-0.08825984999999882,9.71839015
2026-05-02 10:02:06.086,0.16671305,-0.029419949999998803,9.7674234
2026-05-02 10:02:06.338,-0.2745862,-0.20593964999999878,10.091042850000001
2026-05-02 10:02:06.580,-0.36284605000000003,-0.1667130499999988,9.79684335
2026-05-02 10:02:06.839,0.06864655,-0.01961329999999882,9.639936950000001
2026-05-02 10:02:07.080,0.00980665,-0.029419949999998772,10.01258965
2026-05-02 10:02:07.339,-0.24516625,-0.19613299999999878,9.89490985
2026-05-02 10:02:07.580,-0.24516625,-0.2941994999999988,9.81645665
2026-05-02 10:02:07.838,-0.0588399,0.11767980000000121,9.85568325
2026-05-02 10:02:08.084,-0.00980665,-0.0882598499999988,9.7674234
2026-05-02 10:02:08.344,-0.18632635,-0.34323274999999875,9.97336305
2026-05-02 10:02:08.579,-0.2157463,-0.0784531999999988,9.85568325
2026-05-02 10:02:08.840,-0.08825985,0.029419950000001194,9.75761675
2026-05-02 10:02:09.082,-0.0588399,-0.20593964999999878,9.81645665
2026-05-02 10:02:09.340,-0.12748645,-0.20593964999999878,9.8654899
2026-05-02 10:02:09.581,-0.1569064,-0.009806649999998772,10.03220295
2026-05-02 10:02:09.839,-0.16671305,-0.0980664999999988,9.7478101
2026-05-02 10:02:10.085,-0.16671305,-0.3040061499999988,9.6497436
2026-05-02 10:02:10.341,-0.1372931,0.12748645000000122,10.01258965
2026-05-02 10:02:10.580,-0.0980665,-0.13729309999999878,9.89490985
2026-05-02 10:02:10.840,-0.14709975,-0.45110589999999884,9.79684335
2026-05-02 10:02:11.084,-0.18632635,0.1569064000000012,9.7870367
2026-05-02 10:02:11.339,-0.24516625,0.03922660000000122,9.9243298
2026-05-02 10:02:11.581,-0.02941995,-0.45110589999999884,9.7478101
2026-05-02 10:02:11.840,-0.0980665,-0.019613299999998786,9.9243298
2026-05-02 10:02:12.088,-0.2157463,0.12748645000000122,9.93413645
2026-05-02 10:02:12.342,-0.1372931,-0.47071919999999884,9.62032365
2026-05-02 10:02:12.582,-0.00980665,-0.09806649999999878,9.9047165
2026-05-02 10:02:12.840,-0.1569064,0.3334261000000013,10.01258965
2026-05-02 10:02:13.087,-0.1765197,-0.4609125499999988,9.8654899
2026-05-02 10:02:13.341,-0.0588399,-0.45110589999999884,9.610517
2026-05-02 10:02:13.582,-0.12748645,0.5197524500000011,9.8851032
2026-05-02 10:02:13.841,-0.14709975,-0.13729309999999875,10.1008495
2026-05-02 10:02:14.087,0.0,-0.7256920999999988,9.639936950000001
2026-05-02 10:02:14.340,-0.22555295,0.3040061500000012,9.77723005
2026-05-02 10:02:14.587,-0.18632635,0.10787315000000122,9.9635564
2026-05-02 10:02:14.841,0.0784532,-0.6374322499999987,9.79684335
2026-05-02 10:02:15.096,-0.26477955,0.03922660000000121,9.9047165
2026-05-02 10:02:15.338,-0.2549729,0.1372931000000012,9.73800345
2026-05-02 10:02:15.579,0.0588399,-0.37265269999999884,9.80665
2026-05-02 10:02:15.841,-0.1372931,-0.13729309999999878,10.01258965
2026-05-02 10:02:16.084,-0.3138128,0.0490332500000012,9.81645665
2026-05-02 10:02:16.341,-0.0392266,-0.2255529499999988,9.69877685
2026-05-02 10:02:16.582,-0.0784532,-0.16671304999999878,9.83606995
2026-05-02 10:02:16.841,-0.26477955,0.009806650000001223,9.99297635
2026-05-02 10:02:17.089,-0.10787315,-0.19613299999999878,9.89490985
2026-05-02 10:02:17.341,0.04903325,-0.1470997499999988,9.65955025
2026-05-02 10:02:17.583,-0.196133,-0.029419949999998803,9.79684335
2026-05-02 10:02:17.842,-0.2745862,-0.08825984999999877,10.1204628
2026-05-02 10:02:18.089,-0.00980665,-0.1470997499999988,9.80665
2026-05-02 10:02:18.343,-0.0588399,-0.1569063999999988,9.7085835
2026-05-02 10:02:18.583,-0.2353596,-0.029419949999998793,9.8654899
2026-05-02 10:02:18.844,-0.16671305,-0.05883989999999879,9.89490985
2026-05-02 10:02:19.088,-0.0392266,-0.22555294999999878,10.0223963
2026-05-02 10:02:19.342,-0.0196133,-0.1765196999999988,9.56148375
2026-05-02 10:02:19.583,-0.24516625,-0.03922659999999879,9.8458766
2026-05-02 10:02:19.841,-0.2353596,-0.03922659999999876,10.1204628
2026-05-02 10:02:20.083,0.14709975,-0.25497289999999884,9.7281968
2026-05-02 10:02:20.342,-0.1372931,-0.1569063999999988,9.7674234
2026-05-02 10:02:20.580,-0.44129925000000003,0.009806650000001204,9.83606995
2026-05-02 10:02:20.842,-0.0784532,-0.05883989999999878,9.9635564
2026-05-02 10:02:21.087,0.1372931,-0.3236194499999988,9.7281968
2026-05-02 10:02:21.342,-0.28439285000000003,-0.1274864499999988,9.7870367
2026-05-02 10:02:21.582,-0.4511059,0.14709975000000122,10.002783
2026-05-02 10:02:21.842,0.0196133,-0.2059396499999988,9.7478101
2026-05-02 10:02:22.091,0.1176798,-0.27458619999999884,9.79684335
2026-05-02 10:02:22.342,-0.3334261,-0.08825984999999878,9.9047165
2026-05-02 10:02:22.582,-0.4118793,0.029419950000001218,9.9635564
2026-05-02 10:02:22.843,0.06864655,-0.1372930999999988,9.7478101
2026-05-02 10:02:23.084,0.0784532,-0.2451662499999988,9.7085835
2026-05-02 10:02:23.343,-0.44129925000000003,0.029419950000001232,10.0812362
2026-05-02 10:02:23.583,-0.20593965,-0.0882598499999988,9.81645665
2026-05-02 10:02:23.843,0.14709975,-0.2647795499999988,9.7478101
2026-05-02 10:02:24.088,-0.08825985,1.2129779358186976e-15,9.9047165
2026-05-02 10:02:24.342,-0.20593965,-0.05883989999999881,9.7674234
2026-05-02 10:02:24.583,-0.12748645,-0.2549728999999988,9.97336305
2026-05-02 10:02:24.845,-0.0196133,-0.10787314999999882,9.7281968
2026-05-02 10:02:25.085,-0.1765197,0.04903325000000122,9.97336305
2026-05-02 10:02:25.344,-0.0980665,-0.22555294999999878,9.8458766
2026-05-02 10:02:25.581,-0.1176798,-0.2647795499999988,9.60071035
2026-05-02 10:02:25.842,-0.28439285000000003,0.21574630000000125,10.13026945
2026-05-02 10:02:26.083,-0.02941995,-0.1863263499999988,9.77723005
2026-05-02 10:02:26.345,0.0,-0.3432327499999988,9.67916355
2026-05-02 10:02:26.585,-0.2745862,0.08825985000000122,10.01258965
2026-05-02 10:02:26.848,-0.2549729,1.202169221539125e-15,9.81645665
2026-05-02 10:02:27.095,-0.0196133,-0.3138127999999988,9.8458766
2026-05-02 10:02:27.345,-0.0392266,-0.1569063999999988,9.85568325
2026-05-02 10:02:27.585,-0.24516625,0.019613300000001197,9.7870367
2026-05-02 10:02:27.845,-0.2941995,-0.08825984999999878,9.99297635
2026-05-02 10:02:28.089,-0.1765197,-0.2157462999999988,9.6301303
2026-05-02 10:02:28.344,-0.2941995,-0.08825984999999878,9.91452315
2026-05-02 10:02:28.584,-0.2745862,1.2225856818449843e-15,9.9831697
2026-05-02 10:02:28.845,0.0392266,-0.1667130499999988,9.6497436
2026-05-02 10:02:29.089,-0.20593965,-0.17651969999999878,9.9047165
2026-05-02 10:02:29.345,-0.3726527,1.2165808405785551e-15,9.93413645
2026-05-02 10:02:29.586,0.02941995,-0.1274864499999988,9.639936950000001
2026-05-02 10:02:29.844,-0.0980665,-0.12748644999999875,10.0420096
2026-05-02 10:02:30.090,-0.3334261,-0.09806649999999878,9.9047165
2026-05-02 10:02:30.344,-0.1765197,-0.1863263499999988,9.6693569
2026-05-02 10:02:30.585,-0.0196133,0.03922660000000121,9.91452315
2026-05-02 10:02:30.852,-0.0196133,-0.05883989999999881,9.73800345
2026-05-02 10:02:31.104,-0.40207265000000003,-0.4020726499999988,9.95374975
2026-05-02 10:02:31.346,-0.3138128,0.07845320000000122,9.9831697
2026-05-02 10:02:31.586,0.2157463,0.039226600000001166,9.56148375
2026-05-02 10:02:31.847,-0.14709975,-0.4314925999999987,9.99297635
2026-05-02 10:02:32.089,-0.5295591,-0.039226599999998786,9.9243298
2026-05-02 10:02:32.347,-0.00980665,0.1667130500000012,9.65955025
2026-05-02 10:02:32.594,0.0980665,-0.3628460499999988,9.83606995
2026-05-02 10:02:32.845,-0.3726527,-0.15690639999999878,9.9439431
2026-05-02 10:02:33.090,-0.2745862,0.16671305000000122,9.87529655
2026-05-02 10:02:33.346,0.0588399,-0.2451662499999988,9.80665
2026-05-02 10:02:33.586,-0.0784532,-0.24516624999999878,9.81645665
2026-05-02 10:02:33.847,-0.34323275,0.058839900000001194,9.77723005
2026-05-02 10:02:34.103,-0.1765197,-0.04903324999999878,9.9635564
2026-05-02 10:02:34.347,0.0,-0.2941994999999988,9.81645665
2026-05-02 10:02:34.589,-0.14709975,0.03922660000000121,9.8654899
2026-05-02 10:02:34.846,-0.22555295,-0.1078731499999988,9.8262633
2026-05-02 10:02:35.089,-0.196133,-0.22555294999999878,9.81645665
2026-05-02 10:02:35.347,-0.12748645,0.009806650000001214,9.9243298
2026-05-02 10:02:35.588,-0.00980665,-0.029419949999998793,9.8458766
2026-05-02 10:02:35.849,-0.20593965,-0.3236194499999988,9.7281968
2026-05-02 10:02:36.090,-0.3530394,-0.05883989999999877,10.01258965
2026-05-02 10:02:36.347,0.0392266,0.1765197000000012,9.7674234
2026-05-02 10:02:36.588,-0.0980665,-0.3824593499999988,9.7674234
2026-05-02 10:02:36.847,-0.36284605000000003,-0.10787314999999877,10.1204628
2026-05-02 10:02:37.089,-0.02941995,0.06864655000000117,9.56148375
2026-05-02 10:02:37.347,-0.10787315,-0.24516624999999878,9.85568325
2026-05-02 10:02:37.588,-0.3138128,-0.11767979999999878,10.0223963
2026-05-02 10:02:37.849,0.0,1.1973653485259817e-15,9.77723005
2026-05-02 10:02:38.096,-0.1176798,-0.1176797999999988,9.80665
2026-05-02 10:02:38.349,-0.36284605000000003,-0.2255529499999988,9.80665
2026-05-02 10:02:38.589,-0.0588399,0.009806650000001223,9.99297635
2026-05-02 10:02:38.850,0.0,-0.04903324999999881,9.7281968
2026-05-02 10:02:39.091,-0.392266,-0.22555294999999878,9.93413645
2026-05-02 10:02:39.347,-0.14709975,-0.03922659999999879,9.87529655
2026-05-02 10:02:39.589,0.0784532,-0.04903324999999883,9.62032365
2026-05-02 10:02:39.848,-0.42168595,-0.19613299999999875,10.2185293
2026-05-02 10:02:40.093,-0.14709975,-0.11767979999999882,9.6497436
2026-05-02 10:02:40.350,0.10787315,0.04903325000000119,9.639936950000001
2026-05-02 10:02:40.587,-0.38245935,-0.17651969999999875,10.14988275
2026-05-02 10:02:40.851,-0.2157463,-0.2647795499999988,9.7478101
2026-05-02 10:02:41.096,0.0392266,0.0686465500000012,9.75761675
2026-05-02 10:02:41.348,-0.2549729,0.029419950000001218,9.9439431
2026-05-02 10:02:41.592,-0.196133,-0.4216859499999988,9.89490985
2026-05-02 10:02:41.847,-0.0196133,-0.019613299999998803,9.75761675
2026-05-02 10:02:42.098,-0.26477955,0.09806650000000121,9.80665
2026-05-02 10:02:42.351,-0.2353596,-0.2647795499999988,10.0616229
2026-05-02 10:02:42.589,0.0784532,-0.1372930999999988,9.62032365
2026-05-02 10:02:42.847,-0.2353596,0.00980665000000121,9.8654899
2026-05-02 10:02:43.090,-0.4118793,-0.13729309999999875,10.0812362
2026-05-02 10:02:43.347,0.06864655,-0.05883989999999883,9.60071035
2026-05-02 10:02:43.588,-0.00980665,-0.1667130499999988,9.77723005
2026-05-02 10:02:43.848,-0.4707192,-0.11767979999999877,10.0616229
2026-05-02 10:02:44.091,-0.20593965,0.00980665000000121,9.87529655
2026-05-02 10:02:44.350,0.1176798,-0.2451662499999988,9.69877685
2026-05-02 10:02:44.589,-0.16671305,-0.0294199499999988,9.8262633
2026-05-02 10:02:44.850,-0.36284605000000003,1.2153798723252691e-15,9.9243298
2026-05-02 10:02:45.097,-0.1372931,-0.3040061499999988,9.8851032
2026-05-02 10:02:45.350,0.0,-0.0098066499999988,9.80665
2026-05-02 10:02:45.586,-0.16671305,1.1985663167792674e-15,9.7870367
2026-05-02 10:02:45.850,-0.2745862,-0.2843928499999988,9.9831697
2026-05-02 10:02:46.095,-0.12748645,-0.07845319999999881,9.75761675
2026-05-02 10:02:46.362,-0.10787315,0.0588399000000012,9.81645665
2026-05-02 10:02:46.591,0.04903325,-0.22555294999999878,10.05181625
2026-05-02 10:02:46.850,0.28439285000000003,-0.1470997499999988,9.67916355
2026-05-02 10:02:47.097,0.2941995,0.09806650000000121,9.80665
2026-05-02 10:02:47.350,0.1176798,-0.1569063999999988,9.85568325
2026-05-02 10:02:47.589,0.0,-0.1372930999999988,9.8654899
2026-05-02 10:02:47.848,-0.0784532,0.14709975000000122,9.89490985
2026-05-02 10:02:48.089,-0.2549729,0.009806650000001192,9.7281968
2026-05-02 10:02:48.349,-0.26477955,0.01961330000000121,9.89490985
2026-05-02 10:02:48.592,-0.3726527,0.17651970000000122,9.87529655
2026-05-02 10:02:48.850,-0.30400615,-0.0686465499999988,9.7870367
2026-05-02 10:02:49.092,-0.1569064,0.09806650000000121,9.87529655
2026-05-02 10:02:49.349,-0.14709975,0.16671305000000122,9.83606995
2026-05-02 10:02:49.589,0.04903325,-0.2745861999999988,9.85568325
2026-05-02 10:02:49.849,0.2157463,-0.1372930999999988,9.67916355
2026-05-02 10:02:50.094,0.1176798,-0.019613299999998775,10.01258965
2026-05-02 10:02:50.350,0.0392266,-0.1470997499999988,9.77723005
2026-05-02 10:02:50.587,-0.0784532,-0.1274864499999988,9.8654899
2026-05-02 10:02:50.849,0.0,-0.12748644999999878,9.95374975
2026-05-02 10:02:51.099,0.0588399,-0.11767979999999882,9.6693569
2026-05-02 10:02:51.350,-0.08825985,-0.08825984999999877,10.0616229
2026-05-02 10:02:51.590,0.00980665,-0.07845319999999882,9.6889702
2026-05-02 10:02:51.849,-0.0392266,-0.1667130499999988,9.75761675
2026-05-02 10:02:52.094,-0.16671305,-0.10787314999999877,10.1596894
2026-05-02 10:02:52.350,0.12748645,-0.08825984999999884,9.52225715
2026-05-02 10:02:52.592,-0.12748645,-0.08825984999999878,10.01258965
2026-05-02 10:02:52.851,-0.14709975,-0.09806649999999878,9.97336305
2026-05-02 10:02:53.107,0.1372931,-0.16671304999999886,9.52225715
2026-05-02 10:02:53.350,-0.2549729,-0.019613299999998748,10.22833595
2026-05-02 10:02:53.592,-0.0196133,-0.09806649999999882,9.6301303
2026-05-02 10:02:53.851,-0.1176798,-0.1569063999999988,9.8458766
2026-05-02 10:02:54.095,-0.06864655,-0.07845319999999878,10.03220295
2026-05-02 10:02:54.351,0.0,-0.14709974999999884,9.463417250000001
2026-05-02 10:02:54.592,-0.2353596,1.2526098881771303e-15,10.22833595
2026-05-02 10:02:54.850,-0.04903325,-0.2157462999999988,9.6889702
2026-05-02 10:02:55.097,-0.04903325,-0.1078731499999988,9.79684335
2026-05-02 10:02:55.349,-0.1765197,0.029419950000001232,10.07142955
2026-05-02 10:02:55.589,-0.0784532,-0.2157462999999988,9.67916355
2026-05-02 10:02:55.852,-0.0392266,-0.1863263499999988,9.7674234
2026-05-02 10:02:56.092,-0.196133,0.11767980000000124,10.03220295
2026-05-02 10:02:56.357,-0.08825985,-0.2059396499999988,9.79684335
2026-05-02 10:02:56.597,-0.12748645,-0.24516624999999878,9.81645665
2026-05-02 10:02:56.851,-0.12748645,0.1569064000000012,9.7478101
2026-05-02 10:02:57.095,-0.1569064,-0.10787314999999878,9.97336305
2026-05-02 10:02:57.354,-0.04903325,-0.3628460499999988,9.8654899
2026-05-02 10:02:57.593,-0.02941995,0.049033250000001194,9.75761675
2026-05-02 10:02:57.850,-0.2549729,0.05883990000000121,9.91452315
2026-05-02 10:02:58.100,-0.2157463,-0.2843928499999988,9.8654899
2026-05-02 10:02:58.351,0.00980665,-0.2059396499999988,9.71839015
2026-05-02 10:02:58.592,-0.08825985,0.10787315000000122,9.97336305
2026-05-02 10:02:58.851,-0.1176798,-0.1372930999999988,9.73800345
2026-05-02 10:02:59.096,-0.196133,-0.23535959999999878,9.97336305
2026-05-02 10:02:59.352,-0.0784532,-0.1176797999999988,9.83606995
2026-05-02 10:02:59.592,-0.04903325,0.019613300000001197,9.7674234
2026-05-02 10:02:59.854,-0.0980665,-0.11767979999999878,9.93413645
2026-05-02 10:03:00.099,-0.0588399,-0.25497289999999884,9.7870367
2026-05-02 10:03:00.354,-0.06864655,-0.019613299999998796,9.83606995
2026-05-02 10:03:00.589,-0.2353596,-0.05883989999999878,9.95374975
2026-05-02 10:03:00.851,-0.0980665,-0.1863263499999988,9.69877685
2026-05-02 10:03:01.105,0.0,-0.10787314999999878,9.9047165
2026-05-02 10:03:01.353,-0.0588399,-0.0490332499999988,9.8458766
2026-05-02 10:03:01.592,-0.2157463,-0.1274864499999988,9.83606995
2026-05-02 10:03:01.854,-0.1765197,-0.1176797999999988,9.8851032
2026-05-02 10:03:02.101,-0.02941995,-0.1274864499999988,9.79684335
2026-05-02 10:03:02.352,-0.00980665,-0.14709974999999878,9.91452315
2026-05-02 10:03:02.593,-0.04903325,-0.1078731499999988,9.77723005
2026-05-02 10:03:02.854,-0.2549729,-0.009806649999998786,9.9243298
2026-05-02 10:03:03.097,-0.12748645,-0.22555294999999878,9.85568325
2026-05-02 10:03:03.353,0.0588399,-0.1470997499999988,9.7478101
2026-05-02 10:03:03.593,0.0,-0.009806649999998788,9.9047165
2026-05-02 10:03:03.852,-0.12748645,-0.1372930999999988,9.83606995
2026-05-02 10:03:04.094,-0.22555295,-0.15690639999999878,9.99297635
2026-05-02 10:03:04.354,-0.0196133,-0.0882598499999988,9.7478101
2026-05-02 10:03:04.593,0.0196133,-0.0392265999999988,9.7870367
2026-05-02 10:03:04.853,-0.18632635,-0.20593964999999878,9.95374975
2026-05-02 10:03:05.100,-0.1569064,-0.0784531999999988,9.83606995
2026-05-02 10:03:05.354,-0.0588399,0.0490332500000012,9.83606995
2026-05-02 10:03:05.590,-0.12748645,-0.2941994999999988,9.89490985
2026-05-02 10:03:05.853,-0.04903325,-0.07845319999999881,9.73800345
2026-05-02 10:03:06.092,-0.10787315,-0.0784531999999988,9.8654899
2026-05-02 10:03:06.353,-0.22555295,-0.06864654999999878,10.01258965
2026-05-02 10:03:06.595,-0.0784532,-0.1372930999999988,9.6301303
2026-05-02 10:03:06.853,-0.0392266,-0.17651969999999878,9.9243298
2026-05-02 10:03:07.097,-0.1765197,0.04903325000000122,9.9831697
2026-05-02 10:03:07.353,-0.04903325,-0.1863263499999988,9.58109705
2026-05-02 10:03:07.593,-0.18632635,-0.14709974999999878,10.01258965
2026-05-02 10:03:07.852,-0.0784532,0.0392266000000012,9.80665
2026-05-02 10:03:08.094,-0.10787315,-0.2059396499999988,9.80665
2026-05-02 10:03:08.354,-0.26477955,-0.15690639999999878,9.97336305
2026-05-02 10:03:08.594,-0.34323275,-0.1765196999999988,9.639936950000001
2026-05-02 10:03:08.853,-0.67665885,-0.3922659999999987,10.1008495
2026-05-02 10:03:09.107,-0.30400615,-0.33342609999999884,9.67916355
2026-05-02 10:03:09.362,-0.16671305,0.009806650000001204,9.8262633
2026-05-02 10:03:09.594,-0.2549729,-0.3040061499999988,9.91452315
2026-05-02 10:03:09.854,-0.38245935,-0.4412992499999988,9.7674234
2026-05-02 10:03:10.097,0.0980665,0.01961330000000123,10.0223963
2026-05-02 10:03:10.354,0.4511059,0.11767980000000115,9.4339973
2026-05-02 10:03:10.590,0.0392266,-0.16671304999999875,10.1204628
2026-05-02 10:03:10.852,-0.08825985,-0.20593964999999878,9.95374975
2026-05-02 10:03:11.099,0.06864655,-0.009806649999998815,9.6693569
2026-05-02 10:03:11.354,0.04903325,-0.029419949999998772,10.01258965
2026-05-02 10:03:11.594,0.00980665,-0.07845319999999881,9.7281968
2026-05-02 10:03:11.858,-0.0196133,-0.23535959999999878,9.87529655
2026-05-02 10:03:12.101,-0.0588399,1.2105759993121259e-15,9.8851032
2026-05-02 10:03:12.356,0.02941995,1.187757602499695e-15,9.69877685
2026-05-02 10:03:12.594,-0.14709975,-0.16671304999999878,10.05181625
2026-05-02 10:03:12.853,-0.02941995,-0.2059396499999988,9.79684335
2026-05-02 10:03:13.104,-0.00980665,-0.05883989999999881,9.7085835
2026-05-02 10:03:13.354,-0.16671305,0.009806650000001232,10.0616229
2026-05-02 10:03:13.595,0.00980665,-0.1274864499999988,9.7478101
2026-05-02 10:03:13.852,-0.04903325,-0.1470997499999988,9.83606995
2026-05-02 10:03:14.101,-0.196133,-0.05883989999999878,9.95374975
2026-05-02 10:03:14.357,-0.02941995,-0.10787314999999882,9.71839015
2026-05-02 10:03:14.595,-0.0392266,-0.029419949999998782,9.95374975
2026-05-02 10:03:14.855,-0.0588399,-0.1078731499999988,9.81645665
2026-05-02 10:03:15.096,-0.196133,-0.13729309999999878,9.9243298
2026-05-02 10:03:15.351,0.0,-0.05883989999999883,9.6301303
2026-05-02 10:03:15.591,-0.1765197,-0.02941994999999877,10.0616229
2026-05-02 10:03:15.853,-0.0784532,-0.12748644999999878,9.93413645
2026-05-02 10:03:16.105,-0.26477955,-0.13729309999999884,9.5124505
2026-05-02 10:03:16.354,-0.81395195,-0.12748644999999875,10.20872265
2026-05-02 10:03:16.595,-0.40207265000000003,-0.35303939999999884,9.71839015
2026-05-02 10:03:16.859,-0.12748645,-0.1863263499999988,9.7870367
2026-05-02 10:03:17.101,-0.3530394,-0.15690639999999878,9.91452315
2026-05-02 10:03:17.355,-0.5099458,-0.3236194499999988,9.6497436
2026-05-02 10:03:17.594,-0.40207265000000003,-0.2941994999999987,10.13026945
2026-05-02 10:03:17.854,0.0196133,-0.09806649999999882,9.71839015
2026-05-02 10:03:18.097,-0.26477955,-0.1961329999999988,9.71839015
2026-05-02 10:03:18.354,-0.57859235,-0.3334260999999987,10.091042850000001
2026-05-02 10:03:18.596,-0.08825985,-0.15690639999999884,9.60071035
2026-05-02 10:03:18.858,-0.0784532,-0.09806649999999878,9.9047165
2026-05-02 10:03:19.096,-0.34323275,-0.3138127999999988,9.8851032
2026-05-02 10:03:19.354,-0.3138128,-0.1961329999999988,9.7478101
2026-05-02 10:03:19.594,-0.20593965,-0.09806649999999878,9.9047165
2026-05-02 10:03:19.863,-0.1765197,-0.1961329999999988,9.80665
2026-05-02 10:03:20.100,-0.2941995,-0.029419949999998776,9.9831697
2026-05-02 10:03:20.355,-0.18632635,-0.0882598499999988,9.79684335
2026-05-02 10:03:20.593,-0.1176798,1.1913605072595524e-15,9.7281968
2026-05-02 10:03:20.854,-0.26477955,0.15690640000000122,10.002783
2026-05-02 10:03:21.103,-0.1569064,-0.2157462999999988,9.80665
2026-05-02 10:03:21.356,-0.0784532,-0.0980664999999988,9.87529655
2026-05-02 10:03:21.595,-0.1176798,0.2255529500000012,9.7870367
2026-05-02 10:03:21.856,-0.22555295,-0.1863263499999988,9.7674234
2026-05-02 10:03:22.098,-0.2353596,-0.2941994999999988,10.01258965
2026-05-02 10:03:22.355,-0.1176798,0.1372931000000012,9.71839015
2026-05-02 10:03:22.596,-0.1569064,-0.08825984999999878,9.93413645
2026-05-02 10:03:22.857,-0.1176798,-0.3040061499999988,9.85568325
2026-05-02 10:03:23.100,-0.1372931,0.029419950000001183,9.6889702
2026-05-02 10:03:23.354,-0.30400615,1.2333943961245568e-15,10.07142955
2026-05-02 10:03:23.595,-0.0588399,-0.31381279999999884,9.75761675
2026-05-02 10:03:23.855,-0.02941995,-0.0588398999999988,9.79684335
2026-05-02 10:03:24.100,-0.196133,0.06864655000000122,9.9243298
2026-05-02 10:03:24.359,-0.18632635,-0.3432327499999988,9.79684335
2026-05-02 10:03:24.597,-0.1176798,-0.1372930999999988,9.79684335
2026-05-02 10:03:24.861,-0.08825985,0.19613300000000122,9.8851032
2026-05-02 10:03:25.105,-0.1569064,-0.33342609999999884,9.93413645
2026-05-02 10:03:25.354,-0.22555295,-0.27458619999999884,9.77723005
2026-05-02 10:03:25.592,-0.04903325,0.1667130500000012,9.79684335
2026-05-02 10:03:25.860,-0.06864655,-0.1372930999999988,9.81645665
2026-05-02 10:03:26.106,-0.28439285000000003,-0.35303939999999884,9.9439431
2026-05-02 10:03:26.356,-0.14709975,0.08825985000000121,9.87529655
2026-05-02 10:03:26.596,-0.04903325,-0.0392265999999988,9.79684335
2026-05-02 10:03:26.854,-0.1569064,-0.3432327499999988,9.8458766
2026-05-02 10:03:27.099,-0.14709975,-0.0686465499999988,9.80665
2026-05-02 10:03:27.354,-0.20593965,0.13729310000000122,9.9047165
2026-05-02 10:03:27.596,-0.196133,-0.3040061499999988,9.9047165
2026-05-02 10:03:27.856,0.0,-0.1765196999999988,9.7870367
2026-05-02 10:03:28.098,-0.1176798,-0.009806649999998805,9.75761675
2026-05-02 10:03:28.357,-0.34323275,-0.11767979999999878,9.9243298
2026-05-02 10:03:28.597,-0.10787315,-0.019613299999998782,9.9439431
2026-05-02 10:03:28.877,0.04903325,-0.31381279999999884,9.73800345
2026-05-02 10:03:29.099,-0.26477955,-0.0784531999999988,9.8262633
2026-05-02 10:03:29.357,-0.3138128,0.16671305000000122,9.93413645
2026-05-02 10:03:29.597,0.04903325,-0.3432327499999988,9.7674234
2026-05-02 10:03:29.857,-0.10787315,-0.18632634999999878,9.85568325
2026-05-02 10:03:30.103,-0.3334261,0.09806650000000122,9.9243298
2026-05-02 10:03:30.358,-0.10787315,-0.1961329999999988,9.7870367
2026-05-02 10:03:30.595,0.0,-0.1863263499999988,9.7478101
2026-05-02 10:03:30.856,-0.26477955,1.2237866500982701e-15,9.99297635
2026-05-02 10:03:31.103,-0.2157463,-0.1470997499999988,9.8654899
2026-05-02 10:03:31.358,-0.06864655,-0.1863263499999988,9.6889702
2026-05-02 10:03:31.597,-0.12748645,1.2225856818449843e-15,9.9831697
2026-05-02 10:03:31.856,-0.1765197,-0.17651969999999878,9.8458766
2026-05-02 10:03:32.099,-0.1765197,-0.0980664999999988,9.79684335
2026-05-02 10:03:32.356,-0.1176798,-0.0686465499999988,9.7870367
2026-05-02 10:03:32.597,-0.1176798,-0.15690639999999878,9.9243298
2026-05-02 10:03:32.857,-0.2157463,0.019613300000001225,9.9831697
2026-05-02 10:03:33.099,-0.14709975,-0.1961329999999988,9.75761675
2026-05-02 10:03:33.356,0.00980665,-0.25497289999999884,9.69877685
2026-05-02 10:03:33.597,-0.2745862,0.06864655000000121,9.89490985
2026-05-02 10:03:33.856,-0.3334261,0.009806650000001232,10.0616229
2026-05-02 10:03:34.099,0.0784532,-0.35303939999999884,9.69877685
2026-05-02 10:03:34.358,-0.00980665,-0.1372930999999988,9.7281968
2026-05-02 10:03:34.596,-0.4314926,0.15690640000000122,10.0616229
2026-05-02 10:03:34.863,-0.196133,-0.2353595999999988,9.71839015
2026-05-02 10:03:35.101,0.0588399,-0.2549728999999988,9.81645665
2026-05-02 10:03:35.354,0.38245935,0.16671305000000122,9.9439431
2026-05-02 10:03:35.594,0.28439285000000003,-0.1470997499999988,9.67916355
2026-05-02 10:03:35.857,0.0196133,-0.36284604999999875,10.01258965
2026-05-02 10:03:36.107,-0.10787315,0.06864655000000118,9.6301303
2026-05-02 10:03:36.360,-0.06864655,1.230992459617985e-15,10.05181625
2026-05-02 10:03:36.597,0.0588399,-0.2647795499999988,9.83606995
2026-05-02 10:03:36.858,0.28439285000000003,-0.06864654999999882,9.6889702
2026-05-02 10:03:37.107,0.0980665,-0.0980664999999988,9.8654899
2026-05-02 10:03:37.357,-0.0784532,-0.09806649999999878,9.91452315
2026-05-02 10:03:37.598,0.04903325,-0.0490332499999988,9.8262633
2026-05-02 10:03:37.857,-0.00980665,-0.11767979999999878,9.91452315
2026-05-02 10:03:38.100,0.0588399,-0.1863263499999988,9.69877685
2026-05-02 10:03:38.358,0.0,1.2069730945522684e-15,9.85568325
2026-05-02 10:03:38.600,-0.08825985,-0.009806649999998777,9.99297635
2026-05-02 10:03:38.856,0.0,-0.1863263499999988,9.67916355
2026-05-02 10:03:39.101,-0.0588399,-0.15690639999999878,9.99297635
2026-05-02 10:03:39.360,0.0392266,0.039226600000001194,9.7281968
2026-05-02 10:03:39.598,-0.0784532,-0.08825984999999878,9.91452315
2026-05-02 10:03:39.857,-0.0784532,-0.34323274999999875,10.03220295
2026-05-02 10:03:40.103,0.0196133,0.07845320000000117,9.52225715
2026-05-02 10:03:40.358,-0.1765197,0.08825985000000124,10.091042850000001
2026-05-02 10:03:40.599,-0.02941995,-0.4412992499999988,9.79684335
2026-05-02 10:03:40.860,0.0196133,-0.009806649999998815,9.6693569
2026-05-02 10:03:41.098,-0.1765197,0.13729310000000125,10.0616229
2026-05-02 10:03:41.358,-0.0784532,-0.2647795499999988,9.7281968
2026-05-02 10:03:41.596,0.0,-0.19613299999999878,9.81645665
2026-05-02 10:03:41.858,-0.16671305,0.06864655000000121,9.91452315
2026-05-02 10:03:42.100,-0.0784532,-0.0882598499999988,9.75761675
2026-05-02 10:03:42.359,-0.0784532,-0.22555294999999878,9.9243298
2026-05-02 10:03:42.598,-0.0392266,-0.1274864499999988,9.77723005
2026-05-02 10:03:42.857,-0.0784532,0.019613300000001197,9.7870367
2026-05-02 10:03:43.103,-0.18632635,-0.10787314999999878,10.01258965
2026-05-02 10:03:43.359,-0.0392266,-0.1569063999999988,9.62032365
2026-05-02 10:03:43.596,-0.1372931,-0.04903324999999877,10.0223963
2026-05-02 10:03:43.857,-0.0980665,-0.0392265999999988,9.7870367
2026-05-02 10:03:44.102,-0.0784532,-0.1765196999999988,9.7674234
2026-05-02 10:03:44.358,-0.0980665,-0.03922659999999878,9.99297635
2026-05-02 10:03:44.600,-0.08825985,1.1973653485259817e-15,9.77723005
2026-05-02 10:03:44.859,-0.14709975,-0.18632634999999878,9.97336305
2026-05-02 10:03:45.105,-0.06864655,-0.1667130499999988,9.6693569
2026-05-02 10:03:45.356,-0.04903325,0.019613300000001208,9.85568325
2026-05-02 10:03:45.596,-0.12748645,-0.10787314999999878,9.99297635
2026-05-02 10:03:45.860,-0.10787315,-0.0980664999999988,9.75761675
2026-05-02 10:03:46.105,-0.06864655,-0.1372930999999988,9.8654899
2026-05-02 10:03:46.359,-0.16671305,-0.12748644999999878,9.9047165
2026-05-02 10:03:46.597,-0.04903325,0.029419950000001197,9.7674234
2026-05-02 10:03:46.860,-0.26477955,-0.3432327499999988,9.79684335
2026-05-02 10:03:47.106,-0.588399,-0.3040061499999988,9.95374975
2026-05-02 10:03:47.359,-0.53936575,-0.23535959999999878,9.83606995
2026-05-02 10:03:47.600,-0.1765197,-0.1372930999999988,9.79684335
2026-05-02 10:03:47.860,-0.28439285000000003,-0.5393657499999989,9.79684335
2026-05-02 10:03:48.103,-0.0588399,0.029419950000001215,9.9243298
2026-05-02 10:03:48.359,0.20593965,0.2941995000000012,9.81645665
2026-05-02 10:03:48.600,0.32361945000000003,-0.4805258499999988,9.77723005
2026-05-02 10:03:48.862,-0.0784532,-0.0980664999999988,9.87529655
2026-05-02 10:03:49.108,-0.196133,0.10787315000000122,9.97336305
2026-05-02 10:03:49.360,0.12748645,-0.27458619999999884,9.7281968
2026-05-02 10:03:49.604,0.0980665,-0.009806649999998798,9.81645665
2026-05-02 10:03:49.871,-0.12748645,-0.07845319999999878,9.95374975
2026-05-02 10:03:50.100,-0.0980665,-0.16671304999999878,9.8851032
2026-05-02 10:03:50.362,0.0,-0.06864654999999881,9.75761675
2026-05-02 10:03:50.600,-0.38245935,-0.0686465499999988,9.85568325
2026-05-02 10:03:50.870,-0.5491724,0.06864655000000122,10.0223963
2026-05-02 10:03:51.105,-0.2353596,0.03922660000000119,9.6693569
2026-05-02 10:03:51.360,-0.34323275,1.2057721262989826e-15,9.8458766
2026-05-02 10:03:51.601,-0.32361945000000003,0.15690640000000122,9.9439431
2026-05-02 10:03:51.860,-0.26477955,0.04903325000000119,9.69877685
2026-05-02 10:03:52.107,-0.392266,-0.09806649999999878,9.9439431
2026-05-02 10:03:52.359,-0.30400615,0.10787315000000121,9.83606995
2026-05-02 10:03:52.605,-0.22555295,0.1569064000000012,9.7870367
2026-05-02 10:03:52.858,-0.3138128,-0.16671304999999878,9.9831697
2026-05-02 10:03:53.107,-0.2549729,0.01961330000000118,9.639936950000001
2026-05-02 10:03:53.359,-0.2941995,0.12748645000000122,10.01258965
2026-05-02 10:03:53.600,-0.24516625,-0.0490332499999988,9.79684335
2026-05-02 10:03:53.860,-0.24516625,-0.07845319999999881,9.73800345
2026-05-02 10:03:54.106,-0.32361945000000003,0.019613300000001225,9.99297635
2026-05-02 10:03:54.359,-0.18632635,1.1973653485259817e-15,9.77723005
2026-05-02 10:03:54.599,-0.196133,-0.0784531999999988,9.8654899
2026-05-02 10:03:54.858,-0.3530394,-0.16671304999999878,9.91452315
2026-05-02 10:03:55.101,-0.16671305,0.029419950000001194,9.75761675
2026-05-02 10:03:55.358,-0.2157463,0.03922660000000121,9.9047165
2026-05-02 10:03:55.600,-0.30400615,-0.18632634999999878,9.93413645
2026-05-02 10:03:55.860,-0.24516625,1.18055179297998e-15,9.639936950000001
2026-05-02 10:03:56.102,-0.2353596,-0.029419949999998786,9.9243298
2026-05-02 10:03:56.359,-0.28439285000000003,-0.1372930999999988,9.8654899
2026-05-02 10:03:56.600,-0.2941995,-0.0882598499999988,9.8654899
2026-05-02 10:03:56.861,-0.24516625,0.07845320000000121,9.80665
2026-05-02 10:03:57.109,-0.30400615,-0.1569063999999988,9.639936950000001
2026-05-02 10:03:57.360,-0.6472389000000001,-0.23535959999999878,10.0420096
2026-05-02 10:03:57.599,-0.77472535,-0.2941994999999988,9.8654899
2026-05-02 10:03:57.861,-0.38245935,-0.1667130499999988,9.7674234
2026-05-02 10:03:58.100,-0.1765197,-0.18632634999999878,9.8654899
2026-05-02 10:03:58.363,-0.2941995,-0.2157462999999988,9.71839015
2026-05-02 10:03:58.597,-0.48052585000000003,-0.09806649999999878,9.9439431
2026-05-02 10:03:58.860,-0.392266,-0.21574629999999878,9.9439431
2026-05-02 10:03:59.107,-0.10787315,-0.1765196999999988,9.79684335
2026-05-02 10:03:59.359,-0.14709975,0.0588399000000012,9.79684335
2026-05-02 10:03:59.600,-0.28439285000000003,-0.1274864499999988,9.77723005
2026-05-02 10:03:59.859,-0.3530394,-0.2549728999999988,9.9047165
2026-05-02 10:04:00.100,-0.16671305,0.04903325000000121,9.89490985
2026-05-02 10:04:00.360,-0.0980665,-0.03922659999999879,9.87529655
2026-05-02 10:04:00.597,-0.16671305,-0.019613299999998807,9.73800345
2026-05-02 10:04:00.860,-0.18632635,-0.1863263499999988,9.7674234
2026-05-02 10:04:01.107,-0.30400615,-0.009806649999998772,10.03220295
2026-05-02 10:04:01.360,-0.1765197,0.1372931000000012,9.81645665
2026-05-02 10:04:01.599,0.0,-0.2157462999999988,9.7674234
2026-05-02 10:04:01.859,-0.22555295,-0.04903324999999878,9.95374975
2026-05-02 10:04:02.108,-0.2745862,0.11767980000000118,9.71839015
2026-05-02 10:04:02.360,0.0196133,-0.17651969999999878,10.002783
2026-05-02 10:04:02.605,0.1176798,-0.19613299999999878,9.8851032
2026-05-02 10:04:02.860,0.10787315,0.03922660000000117,9.5909037
2026-05-02 10:04:03.105,-0.14709975,-0.10787314999999877,10.11065615
2026-05-02 10:04:03.360,-0.08825985,-0.3040061499999988,9.7674234
2026-05-02 10:04:03.607,0.00980665,-0.0098066499999988,9.79684335
2026-05-02 10:04:03.862,-0.1176798,-0.07845319999999878,9.93413645
2026-05-02 10:04:04.103,0.14709975,-0.019613299999998786,9.9047165
2026-05-02 10:04:04.361,0.38245935,0.0392266000000012,9.7870367
2026-05-02 10:04:04.601,0.2157463,-0.029419949999998803,9.7674234
2026-05-02 10:04:04.859,-0.06864655,-0.19613299999999878,10.0420096
2026-05-02 10:04:05.107,0.20593965,0.039226600000001194,9.7085835
2026-05-02 10:04:05.358,0.1372931,-0.009806649999998796,9.83606995
2026-05-02 10:04:05.598,0.08825985,-0.19613299999999878,9.93413645
2026-05-02 10:04:05.860,0.0588399,-0.1176797999999988,9.75761675
2026-05-02 10:04:06.105,0.0,0.029419950000001218,9.9439431
2026-05-02 10:04:06.361,0.0784532,-0.1765196999999988,9.75761675
2026-05-02 10:04:06.601,-0.00980665,-0.3138127999999988,9.9635564
2026-05-02 10:04:06.861,0.12748645,0.049033250000001194,9.7478101
2026-05-02 10:04:07.105,-0.48052585000000003,-0.0392265999999988,9.7870367
2026-05-02 10:04:07.361,-0.87279185,-0.2647795499999988,10.002783
2026-05-02 10:04:07.602,-0.91201845,-0.0784531999999988,9.81645665
2026-05-02 10:04:07.866,-0.38245935,-0.00980664999999879,9.8851032
2026-05-02 10:04:08.104,-0.2157463,-0.07845319999999882,9.610517
2026-05-02 10:04:08.361,-0.6080123,-0.17651969999999878,10.002783
2026-05-02 10:04:08.598,-0.32361945000000003,-0.20593964999999878,10.0616229
2026-05-02 10:04:08.861,0.16671305,-0.24516624999999886,9.50264385
2026-05-02 10:04:09.101,0.0784532,-0.22555294999999878,9.97336305
2026-05-02 10:04:09.361,-0.28439285000000003,-0.17651969999999878,9.8262633
2026-05-02 10:04:09.599,-0.44129925000000003,-0.23535959999999878,9.9439431
2026-05-02 10:04:09.861,-0.1569064,-0.27458619999999884,9.79684335
2026-05-02 10:04:10.104,-0.02941995,-0.08825984999999882,9.73800345
2026-05-02 10:04:10.363,-0.26477955,-0.14709974999999878,9.9635564
2026-05-02 10:04:10.600,-0.3530394,-0.2941994999999988,9.83606995
2026-05-02 10:04:10.861,-0.1765197,0.13729310000000122,9.9047165
2026-05-02 10:04:11.110,-0.1372931,-0.09806649999999882,9.7085835
2026-05-02 10:04:11.359,-0.2549729,-0.3040061499999988,9.93413645
2026-05-02 10:04:11.600,-0.22555295,-0.17651969999999878,9.9243298
2026-05-02 10:04:11.862,-0.16671305,-0.1274864499999988,9.77723005
2026-05-02 10:04:12.109,-0.2941995,-0.1470997499999988,9.87529655
2026-05-02 10:04:12.361,-0.2941995,-0.2157462999999988,9.80665
2026-05-02 10:04:12.607,-0.1765197,-0.17651969999999878,9.9635564
2026-05-02 10:04:12.861,-0.2157463,-0.0882598499999988,9.7870367
2026-05-02 10:04:13.103,-0.24516625,-0.2157462999999988,9.80665
2026-05-02 10:04:13.362,-0.3530394,1.2213847135916984e-15,9.97336305
2026-05-02 10:04:13.600,-0.1569064,-0.05883989999999881,9.77723005
2026-05-02 10:04:13.861,-0.0196133,-0.009806649999998791,9.87529655
2026-05-02 10:04:14.108,-0.24516625,-0.0490332499999988,9.8262633
2026-05-02 10:04:14.361,-0.30400615,-0.1372930999999988,9.77723005
2026-05-02 10:04:14.603,-0.10787315,-0.07845319999999878,9.99297635
2026-05-02 10:04:14.863,-0.02941995,1.1901595390062667e-15,9.71839015
2026-05-02 10:04:15.102,-0.196133,-0.11767979999999878,9.89490985
2026-05-02 10:04:15.363,-0.30400615,-0.08825984999999878,9.89490985
2026-05-02 10:04:15.600,-0.14709975,-0.0980664999999988,9.7870367
2026-05-02 10:04:15.861,-0.00980665,-0.07845319999999878,9.9831697
2026-05-02 10:04:16.103,-0.10787315,-0.07845319999999882,9.65955025
2026-05-02 10:04:16.364,-0.3726527,-0.17651969999999878,9.9635564
2026-05-02 10:04:16.603,-0.14709975,-0.0882598499999988,9.8851032
2026-05-02 10:04:16.862,0.0980665,0.06864655000000118,9.6497436
2026-05-02 10:04:17.110,-0.2549729,-0.36284604999999875,10.0420096
2026-05-02 10:04:17.361,-0.38245935,-0.05883989999999881,9.77723005
2026-05-02 10:04:17.602,-0.02941995,0.08825985000000121,9.79684335
2026-05-02 10:04:17.862,0.0392266,-0.33342609999999884,9.91452315
2026-05-02 10:04:18.111,-0.3530394,0.029419950000001197,9.79684335
2026-05-02 10:04:18.362,-0.30400615,0.32361945000000125,10.01258965
2026-05-02 10:04:18.602,-0.0784532,-0.1569063999999988,9.610517
2026-05-02 10:04:18.862,-0.0392266,-0.14709974999999878,9.89490985
2026-05-02 10:04:19.104,-0.30400615,0.16671305000000122,10.01258965
2026-05-02 10:04:19.361,-0.2157463,0.07845320000000118,9.610517
2026-05-02 10:04:19.603,-0.22555295,-0.3040061499999988,10.002783
2026-05-02 10:04:19.862,-0.196133,0.11767980000000121,9.8654899
2026-05-02 10:04:20.108,-0.2549729,-0.029419949999998803,9.77723005
2026-05-02 10:04:20.363,-0.3138128,-0.23535959999999878,9.9243298
2026-05-02 10:04:20.603,-0.2353596,-0.0490332499999988,9.81645665
2026-05-02 10:04:20.862,-0.30400615,0.03922660000000121,9.8851032
2026-05-02 10:04:21.101,-0.2549729,-0.1470997499999988,9.7085835
2026-05-02 10:04:21.362,-0.2353596,-0.18632634999999878,9.99297635
2026-05-02 10:04:21.603,-0.30400615,0.16671305000000122,9.81645665
2026-05-02 10:04:21.863,-0.34323275,-0.0392265999999988,9.7674234
2026-05-02 10:04:22.104,-0.2941995,-0.1961329999999988,9.79684335
2026-05-02 10:04:22.362,-0.18632635,-0.09806649999999878,9.91452315
2026-05-02 10:04:22.603,-0.2549729,0.11767980000000122,9.9243298
2026-05-02 10:04:22.861,-0.2941995,-0.049033249999998814,9.65955025
2026-05-02 10:04:23.104,-0.3138128,-0.22555294999999878,9.9439431
2026-05-02 10:04:23.363,-0.2157463,1.2117769675654117e-15,9.89490985
2026-05-02 10:04:23.604,-0.1765197,0.0686465500000012,9.77723005
2026-05-02 10:04:23.863,-0.2745862,-0.10787314999999878,9.91452315
2026-05-02 10:04:24.111,-0.392266,-0.05883989999999879,9.85568325
2026-05-02 10:04:24.363,-0.14709975,0.009806650000001202,9.81645665
2026-05-02 10:04:24.604,-0.1569064,-0.0784531999999988,9.87529655
2026-05-02 10:04:24.863,-0.3334261,-0.019613299999998782,9.93413645
2026-05-02 10:04:25.109,-0.18632635,0.0686465500000012,9.73800345
2026-05-02 10:04:25.369,-0.196133,-0.16671304999999878,9.89490985
2026-05-02 10:04:25.600,0.0980665,-0.10787314999999878,9.95374975
2026-05-02 10:04:25.862,0.2745862,-0.08825984999999882,9.6301303
2026-05-02 10:04:26.105,-0.26477955,-0.24516624999999878,10.05181625
2026-05-02 10:04:26.364,-0.4118793,-0.0980664999999988,9.80665
2026-05-02 10:04:26.605,-0.2549729,-0.23535959999999878,9.83606995
2026-05-02 10:04:26.864,-0.1765197,-0.37265269999999884,9.91452315
2026-05-02 10:04:27.108,-0.20593965,-0.09806649999999882,9.6889702
2026-05-02 10:04:27.364,-0.32361945000000003,1.2297914913646993e-15,10.0420096
2026-05-02 10:04:27.605,0.0980665,-0.12748644999999878,9.97336305
2026-05-02 10:04:27.863,0.36284605000000003,-0.19613299999999886,9.50264385
2026-05-02 10:04:28.109,0.0784532,-0.07845319999999878,10.01258965
2026-05-02 10:04:28.364,-0.0980665,-0.009806649999998786,9.9243298
2026-05-02 10:04:28.607,0.02941995,-0.2059396499999988,9.7085835
2026-05-02 10:04:28.866,-0.0392266,-0.24516624999999878,9.9831697
2026-05-02 10:04:29.113,-0.0588399,0.05883990000000119,9.69877685
2026-05-02 10:04:29.364,-0.08825985,-0.04903324999999878,9.93413645
2026-05-02 10:04:29.605,-0.06864655,-0.3236194499999988,9.8851032
2026-05-02 10:04:29.864,-0.02941995,-0.00980664999999882,9.639936950000001
2026-05-02 10:04:30.116,-0.2157463,1.2345953643778426e-15,10.0812362
2026-05-02 10:04:30.366,-0.08825985,-0.2843928499999988,9.73800345
2026-05-02 10:04:30.601,-0.10787315,-0.0784531999999988,9.8654899
2026-05-02 10:04:30.865,-0.32361945000000003,-0.0588398999999988,9.8458766
2026-05-02 10:04:31.114,-0.5099458,-0.3824593499999988,9.7674234
2026-05-02 10:04:31.365,-0.6080123,-0.46091254999999876,9.99297635
2026-05-02 10:04:31.601,-0.38245935,-0.0882598499999988,9.81645665
2026-05-02 10:04:31.864,-0.0980665,1.1865566342464092e-15,9.6889702
2026-05-02 10:04:32.116,-0.36284605000000003,0.08825985000000122,9.97336305
2026-05-02 10:04:32.367,-0.4118793,1.2225856818449843e-15,9.9831697
2026-05-02 10:04:32.609,-0.18632635,-0.06864654999999882,9.60071035
2026-05-02 10:04:32.872,-0.2353596,0.18632635000000122,9.95374975
2026-05-02 10:04:33.116,-0.08825985,-0.12748644999999878,9.97336305
2026-05-02 10:04:33.365,0.2745862,-0.2647795499999988,9.69877685
2026-05-02 10:04:33.605,0.2157463,1.1913605072595524e-15,9.7281968
2026-05-02 10:04:33.865,-0.1765197,-0.05883989999999878,9.97336305
2026-05-02 10:04:34.105,-0.08825985,-0.23535959999999878,9.9243298
2026-05-02 10:04:34.365,0.08825985,-0.009806649999998819,9.6497436
2026-05-02 10:04:34.606,-0.1372931,-0.029419949999998782,9.97336305
2026-05-02 10:04:34.863,-0.1372931,-0.2843928499999988,9.9243298
2026-05-02 10:04:35.107,0.0,-0.019613299999998814,9.6889702
2026-05-02 10:04:35.362,-0.08825985,1.2129779358186976e-15,9.9047165
2026-05-02 10:04:35.602,-0.2353596,-0.24516624999999878,9.9439431
2026-05-02 10:04:35.874,-0.06864655,-0.0882598499999988,9.81645665
2026-05-02 10:04:36.108,0.0,0.009806650000001197,9.77723005
2026-05-02 10:04:36.365,-0.26477955,-0.16671304999999878,9.95374975
2026-05-02 10:04:36.606,-0.12748645,-0.17651969999999878,9.81645665
2026-05-02 10:04:36.865,-0.04903325,0.0392266000000012,9.7870367
2026-05-02 10:04:37.117,-0.2157463,-0.17651969999999878,9.9831697
2026-05-02 10:04:37.368,-0.0588399,-0.1372930999999988,9.62032365
2026-05-02 10:04:37.605,-0.24516625,-0.04903324999999877,10.05181625
2026-05-02 10:04:37.864,-0.10787315,-0.0784531999999988,9.80665
2026-05-02 10:04:38.105,-0.08825985,-0.2255529499999988,9.7478101
2026-05-02 10:04:38.366,-0.24516625,-0.009806649999998765,10.091042850000001
2026-05-02 10:04:38.608,-0.08825985,-0.11767979999999882,9.65955025
2026-05-02 10:04:38.867,-0.14709975,-0.19613299999999878,9.9439431
2026-05-02 10:04:39.110,-0.196133,-0.10787314999999882,9.7281968
2026-05-02 10:04:39.368,-0.392266,-0.22555294999999878,9.87529655
2026-05-02 10:04:39.606,-0.32361945000000003,-0.23535959999999878,10.002783
2026-05-02 10:04:39.865,0.0784532,-0.05883989999999883,9.60071035
2026-05-02 10:04:40.110,-0.16671305,-0.21574629999999878,9.8458766
2026-05-02 10:04:40.365,-0.46091255,-0.19613299999999878,10.07142955
2026-05-02 10:04:40.604,-0.2157463,-0.2451662499999988,9.65955025
2026-05-02 10:04:40.865,-0.0392266,-0.13729309999999875,10.03220295
2026-05-02 10:04:41.117,0.0392266,-0.05883989999999881,9.73800345
2026-05-02 10:04:41.366,-0.0196133,-0.0980664999999988,9.81645665
2026-05-02 10:04:41.603,-0.12748645,-0.15690639999999878,10.002783
2026-05-02 10:04:41.865,-0.08825985,-0.058839899999998814,9.6889702
2026-05-02 10:04:42.106,-0.1372931,-0.18632634999999878,9.9635564
2026-05-02 10:04:42.365,-0.3138128,-0.1470997499999988,9.69877685
2026-05-02 10:04:42.606,-0.75511205,0.009806650000001211,9.8851032
2026-05-02 10:04:42.865,-1.0002783,-0.21574629999999878,10.0420096
2026-05-02 10:04:43.108,-0.588399,-0.009806649999998819,9.6497436
2026-05-02 10:04:43.365,-0.38245935,-0.04903324999999881,9.7674234
2026-05-02 10:04:43.606,-0.588399,-0.19613299999999878,10.002783
2026-05-02 10:04:43.864,-0.1372931,-0.0588398999999988,9.8262633
2026-05-02 10:04:44.114,0.24516625,-0.1470997499999988,9.7085835
2026-05-02 10:04:44.366,-0.196133,-0.09806649999999878,9.9243298
2026-05-02 10:04:44.605,-0.32361945000000003,-0.1372930999999988,9.87529655
2026-05-02 10:04:44.867,-0.0980665,1.1985663167792674e-15,9.7870367
2026-05-02 10:04:45.108,0.00980665,0.1470997500000012,9.83606995
2026-05-02 10:04:45.362,-0.14709975,1.2129779358186976e-15,9.9047165
2026-05-02 10:04:45.603,-0.28439285000000003,-0.20593964999999878,9.9047165
2026-05-02 10:04:45.865,-0.196133,-0.1863263499999988,9.80665
2026-05-02 10:04:46.108,-0.00980665,-0.0392265999999988,9.8262633
2026-05-02 10:04:46.365,-0.0980665,-0.1470997499999988,9.8458766
2026-05-02 10:04:46.603,-0.30400615,-0.16671304999999878,9.9047165
2026-05-02 10:04:46.864,-0.1569064,-0.04903324999999879,9.8851032
2026-05-02 10:04:47.109,-0.06864655,-0.11767979999999882,9.7281968
2026-05-02 10:04:47.366,-0.24516625,-0.13729309999999878,9.91452315
2026-05-02 10:04:47.606,-0.18632635,-0.1372930999999988,9.8458766
2026-05-02 10:04:47.866,-0.1372931,-0.0882598499999988,9.81645665
2026-05-02 10:04:48.107,-0.2353596,-0.09806649999999878,9.89490985
2026-05-02 10:04:48.366,-0.2157463,-0.0882598499999988,9.8262633
2026-05-02 10:04:48.607,-0.0980665,-0.1372930999999988,9.8458766
2026-05-02 10:04:48.865,-0.2353596,-0.1470997499999988,9.8262633
2026-05-02 10:04:49.111,-0.2941995,-0.039226599999998786,9.9047165
2026-05-02 10:04:49.366,-0.12748645,-0.0784531999999988,9.87529655
2026-05-02 10:04:49.607,-0.1176798,-0.1569063999999988,9.71839015
2026-05-02 10:04:49.864,-0.34323275,-0.10787314999999878,9.9243298
2026-05-02 10:04:50.106,-0.196133,0.10787315000000122,9.9439431
2026-05-02 10:04:50.367,-0.02941995,0.0686465500000012,9.7085835
2026-05-02 10:04:50.603,-0.26477955,-0.039226599999998786,9.9243298
2026-05-02 10:04:50.869,-0.04903325,-0.02941994999999877,10.07142955
2026-05-02 10:04:51.115,0.50013915,-0.10787314999999884,9.5712904
2026-05-02 10:04:51.367,0.20593965,-0.1078731499999988,9.75761675
2026-05-02 10:04:51.608,-0.1176798,-0.21574629999999878,10.0616229
2026-05-02 10:04:51.866,0.0,0.0098066500000012,9.79684335
2026-05-02 10:04:52.115,0.04903325,-0.1372930999999988,9.85568325
2026-05-02 10:04:52.367,-0.0980665,-0.2451662499999988,9.80665
2026-05-02 10:04:52.608,-0.2353596,-0.0686465499999988,9.87529655
2026-05-02 10:04:52.869,-0.36284605000000003,-0.17651969999999878,9.89490985
2026-05-02 10:04:53.108,-0.588399,-0.41187929999999884,9.87529655
2026-05-02 10:04:53.367,-0.5491724,-0.21574629999999878,9.93413645
2026-05-02 10:04:53.609,-0.1569064,0.049033250000001194,9.71839015
2026-05-02 10:04:53.866,-0.1765197,0.1372931000000012,9.8458766
2026-05-02 10:04:54.113,-0.3334261,1.2189827770851268e-15,9.95374975
2026-05-02 10:04:54.367,-0.3530394,-0.0980664999999988,9.80665
2026-05-02 10:04:54.607,-0.32361945000000003,0.10787315000000121,9.83606995
2026-05-02 10:04:54.867,-0.20593965,0.07845320000000122,9.9047165
2026-05-02 10:04:55.109,-0.2157463,1.202169221539125e-15,9.81645665
2026-05-02 10:04:55.368,-0.32361945000000003,-0.07845319999999878,9.9243298
2026-05-02 10:04:55.607,-0.28439285000000003,-0.18632634999999878,9.83606995
2026-05-02 10:04:55.866,-0.08825985,-0.0882598499999988,9.79684335
2026-05-02 10:04:56.110,-0.1569064,-0.1176797999999988,9.8458766
2026-05-02 10:04:56.367,-0.3726527,-0.2647795499999988,9.83606995
2026-05-02 10:04:56.606,-0.32361945000000003,-0.3432327499999988,9.95374975
2026-05-02 10:04:56.866,-0.10787315,-0.1470997499999988,9.73800345
2026-05-02 10:04:57.108,-0.22555295,-0.0784531999999988,9.80665
2026-05-02 10:04:57.368,0.02941995,-0.15690639999999875,10.05181625
2026-05-02 10:04:57.609,0.36284605000000003,-0.1372930999999988,9.7281968
