timestamp,acc_x,acc_y,acc_z
2026-04-18 20:27:15.542,-0.1176798,-0.0784531999999988,9.79684335
2026-04-18 20:27:15.745,-0.1569064,-0.05883989999999879,9.87529655
2026-04-18 20:27:15.944,-0.14709975,-0.0686465499999988,9.89490985
2026-04-18 20:27:16.142,-0.10787315,-0.0980664999999988,9.80665
2026-04-18 20:27:16.343,-0.10787315,-0.0980664999999988,9.79684335
2026-04-18 20:27:16.549,-0.14709975,-0.0686465499999988,9.8458766
2026-04-18 20:27:16.743,-0.14709975,-0.0686465499999988,9.8458766
2026-04-18 20:27:16.942,-0.1176798,-0.0882598499999988,9.8458766
2026-04-18 20:27:17.142,-0.0980665,-0.0980664999999988,9.83606995
2026-04-18 20:27:17.348,-0.1176798,-0.0686465499999988,9.83606995
2026-04-18 20:27:17.549,-0.1569064,-0.0882598499999988,9.85568325
2026-04-18 20:27:17.942,-0.1569064,-0.0882598499999988,9.85568325
2026-04-18 20:27:18.140,-0.1569064,-0.0882598499999988,9.85568325
2026-04-18 20:27:18.344,-0.16671305,-0.0784531999999988,9.8851032
2026-04-18 20:27:18.545,-0.16671305,-0.0882598499999988,9.85568325
2026-04-18 20:27:18.742,-0.16671305,-0.0882598499999988,9.85568325
2026-04-18 20:27:18.941,-0.0784532,-0.0784531999999988,9.83606995
2026-04-18 20:27:19.142,-0.1372931,-0.0686465499999988,9.8458766
2026-04-18 20:27:20.227,-0.1765197,-0.0784531999999988,9.8654899
2026-04-18 20:27:21.858,-0.1569064,-0.0882598499999988,9.8851032
2026-04-18 20:27:22.128,-0.10787315,-0.0784531999999988,9.8458766
2026-04-18 20:27:22.506,-0.0980665,-0.0588398999999988,9.79684335
2026-04-18 20:27:23.143,-0.10787315,-0.0784531999999988,9.83606995
2026-04-18 20:27:23.379,-0.12748645,-0.0784531999999988,9.85568325
2026-04-18 20:27:23.590,-0.10787315,-0.0686465499999988,9.8458766
2026-04-18 20:27:23.743,-0.10787315,-0.0686465499999988,9.8458766
2026-04-18 20:27:23.941,-0.14709975,-0.0784531999999988,9.85568325
2026-04-18 20:27:24.140,-0.1372931,-0.0686465499999988,9.85568325
2026-04-18 20:27:24.342,-0.1176798,-0.0784531999999988,9.83606995
2026-04-18 20:27:24.561,-0.1176798,-0.0980664999999988,9.83606995
2026-04-18 20:27:24.749,-0.14709975,-0.0784531999999988,9.8458766
2026-04-18 20:27:24.949,-0.1372931,-0.0686465499999988,9.85568325
2026-04-18 20:27:25.149,-0.1372931,-0.0686465499999988,9.85568325
2026-04-18 20:27:25.340,-0.12748645,-0.0784531999999988,9.85568325
2026-04-18 20:27:25.544,-0.1569064,-0.0980664999999988,9.87529655
2026-04-18 20:27:25.744,-0.12748645,-0.0882598499999988,9.8458766
2026-04-18 20:27:25.949,-0.12748645,-0.0882598499999988,9.8458766
2026-04-18 20:27:26.159,-0.12748645,-0.0882598499999988,9.8458766
2026-04-18 20:27:26.345,-0.16671305,-0.0980664999999988,9.8654899
2026-04-18 20:27:26.542,-0.14709975,-0.0980664999999988,9.8458766
2026-04-18 20:27:26.744,-0.08825985,-0.0784531999999988,9.8262633
2026-04-18 20:27:26.967,-0.0980665,-0.0686465499999988,9.81645665
2026-04-18 20:27:27.143,-0.0980665,-0.0686465499999988,9.81645665
2026-04-18 20:27:27.340,-0.16671305,-0.0784531999999988,9.87529655
2026-04-18 20:27:27.542,-0.1372931,-0.0882598499999988,9.8654899
2026-04-18 20:27:27.741,-0.0980665,-0.0784531999999988,9.8262633
2026-04-18 20:27:27.947,-0.10787315,-0.0882598499999988,9.81645665
2026-04-18 20:27:28.140,-0.1372931,-0.0882598499999988,9.8458766
2026-04-18 20:27:28.341,-0.1569064,-0.0686465499999988,9.8458766
2026-04-18 20:27:28.540,-0.1372931,-0.0686465499999988,9.85568325
2026-04-18 20:27:28.941,-0.10787315,-0.0882598499999988,9.8262633
2026-04-18 20:27:29.148,-0.1569064,-0.0784531999999988,9.8458766
2026-04-18 20:27:29.340,-0.16671305,-0.0686465499999988,9.85568325
2026-04-18 20:27:29.544,-0.1176798,-0.0784531999999988,9.83606995
2026-04-18 20:27:29.739,-0.08825985,-0.0882598499999988,9.8458766
2026-04-18 20:27:29.940,-0.12748645,-0.0882598499999988,9.8458766
2026-04-18 20:27:30.140,-0.1569064,-0.0588398999999988,9.83606995
2026-04-18 20:27:30.340,-0.14709975,-0.0686465499999988,9.8458766
2026-04-18 20:27:30.561,-0.1176798,-0.1078731499999988,9.8262633
2026-04-18 20:27:30.962,-0.1372931,-0.03922659999999879,9.8654899
2026-04-18 20:27:31.141,-0.16671305,-0.04903324999999879,9.8654899
2026-04-18 20:27:31.340,-0.12748645,-0.1078731499999988,9.8262633
2026-04-18 20:27:31.564,-0.08825985,-0.1274864499999988,9.8262633
2026-04-18 20:27:31.740,-0.1176798,-0.0490332499999988,9.81645665
2026-04-18 20:27:31.942,-0.1569064,-0.019613299999998796,9.8262633
2026-04-18 20:27:32.140,-0.16671305,-0.0882598499999988,9.8851032
2026-04-18 20:27:32.342,-0.1176798,-0.1372930999999988,9.85568325
2026-04-18 20:27:32.562,-0.08825985,-0.0784531999999988,9.80665
2026-04-18 20:27:32.741,-0.08825985,-0.0784531999999988,9.80665
2026-04-18 20:27:32.942,-0.1569064,-0.0784531999999988,9.85568325
2026-04-18 20:27:33.140,-0.14709975,-0.1274864499999988,9.80665
2026-04-18 20:27:33.340,-0.1176798,-0.0784531999999988,9.8458766
2026-04-18 20:27:33.543,-0.1176798,-0.04903324999999879,9.8654899
2026-04-18 20:27:33.743,-0.1372931,-0.0784531999999988,9.8262633
2026-04-18 20:27:33.940,-0.1372931,-0.0784531999999988,9.8262633
2026-04-18 20:27:34.140,-0.1372931,-0.0686465499999988,9.8654899
2026-04-18 20:27:34.341,-0.6080123,-0.07845319999999882,9.60071035
2026-04-18 20:27:34.543,-0.75511205,-0.09806649999999878,10.002783
2026-04-18 20:27:34.741,-0.67665885,-0.09806649999999878,9.91452315
2026-04-18 20:27:34.941,-0.2745862,-0.06864654999999881,9.7478101
2026-04-18 20:27:35.143,-0.0980665,-0.03922659999999879,9.83606995
2026-04-18 20:27:35.343,-0.22555295,-0.0784531999999988,9.83606995
2026-04-18 20:27:35.546,-0.34323275,-0.0784531999999988,9.81645665
2026-04-18 20:27:35.743,-0.32361945000000003,-0.05883989999999879,9.8851032
2026-04-18 20:27:35.946,-0.22555295,-0.0686465499999988,9.85568325
2026-04-18 20:27:36.140,0.0,-0.1372930999999988,9.8262633
2026-04-18 20:27:36.342,0.0588399,-0.1078731499999988,9.79684335
2026-04-18 20:27:36.542,-0.16671305,-0.019613299999998786,9.9243298
2026-04-18 20:27:36.742,-0.30400615,0.05883990000000122,9.9243298
2026-04-18 20:27:36.960,-0.10787315,0.0196133000000012,9.80665
2026-04-18 20:27:37.141,0.0980665,-0.009806649999998796,9.83606995
2026-04-18 20:27:37.340,0.06864655,-0.05883989999999879,9.85568325
2026-04-18 20:27:37.545,0.04903325,-0.18632634999999878,9.89490985
2026-04-18 20:27:37.744,-0.0588399,-0.1961329999999988,9.7870367
2026-04-18 20:27:37.945,-0.0588399,0.0588399000000012,9.8458766
2026-04-18 20:27:38.283,-0.0980665,0.06864655000000121,9.83606995
2026-04-18 20:27:38.522,-0.0392266,-0.3138127999999988,9.91452315
2026-04-18 20:27:38.781,-0.0980665,-0.2941994999999988,9.8262633
2026-04-18 20:27:39.022,-0.0980665,-0.0686465499999988,9.89490985
2026-04-18 20:27:39.283,0.00980665,-0.0980664999999988,9.77723005
2026-04-18 20:27:39.523,-0.00980665,-0.1961329999999988,9.7870367
2026-04-18 20:27:39.780,-0.08825985,-0.1176797999999988,9.83606995
2026-04-18 20:27:40.020,-0.0784532,-0.0980664999999988,9.7870367
2026-04-18 20:27:40.283,-0.12748645,-0.1176797999999988,9.8458766
2026-04-18 20:27:40.780,-0.2157463,-0.0882598499999988,9.8458766
2026-04-18 20:27:41.020,-0.20593965,-0.0686465499999988,9.83606995
2026-04-18 20:27:41.280,-0.20593965,-0.0784531999999988,9.8458766
2026-04-18 20:27:41.520,-0.2353596,-0.0784531999999988,9.83606995
2026-04-18 20:27:41.783,-0.2157463,-0.0980664999999988,9.83606995
2026-04-18 20:27:42.023,-0.2353596,-0.0980664999999988,9.8262633
2026-04-18 20:27:42.283,-0.24516625,-0.1078731499999988,9.8458766
2026-04-18 20:27:42.523,-0.2353596,-0.1078731499999988,9.8654899
2026-04-18 20:27:42.783,-0.2549729,-0.1470997499999988,9.81645665
2026-04-18 20:27:43.024,-0.26477955,-0.1274864499999988,9.87529655
2026-04-18 20:27:43.282,-0.2745862,-0.0980664999999988,9.8458766
2026-04-18 20:27:43.523,-0.2549729,-0.1569063999999988,9.81645665
2026-04-18 20:27:43.783,-0.22555295,-0.1569063999999988,9.8262633
2026-04-18 20:27:44.021,-0.2353596,-0.0882598499999988,9.83606995
2026-04-18 20:27:44.283,-0.30400615,-0.1274864499999988,9.8851032
2026-04-18 20:27:44.524,-0.30400615,-0.1569063999999988,9.85568325
2026-04-18 20:27:44.781,-0.22555295,-0.1274864499999988,9.83606995
2026-04-18 20:27:45.021,-0.196133,-0.17651969999999878,9.87529655
2026-04-18 20:27:45.284,-0.2157463,-0.1765196999999988,9.80665
2026-04-18 20:27:45.523,-0.24516625,-0.01961329999999879,9.8851032
2026-04-18 20:27:45.782,0.3334261,-0.049033249999998814,9.65955025
2026-04-18 20:27:46.020,0.40207265000000003,-0.1274864499999988,9.77723005
2026-04-18 20:27:46.282,0.1569064,-0.0686465499999988,9.91452315
2026-04-18 20:27:46.521,-0.1176798,-0.0098066499999988,9.79684335
2026-04-18 20:27:46.780,0.14709975,-0.07845319999999881,9.7674234
2026-04-18 20:27:47.024,0.18632635,-0.1569063999999988,9.75761675
2026-04-18 20:27:47.283,0.0196133,-0.08825984999999878,9.93413645
2026-04-18 20:27:47.520,-0.00980665,-0.03922659999999879,9.85568325
2026-04-18 20:27:47.779,-0.22555295,1.2189827770851268e-15,9.95374975
2026-04-18 20:27:48.020,-0.1765197,0.03922660000000121,9.89490985
2026-04-18 20:27:48.280,-0.0392266,0.019613300000001194,9.7281968
2026-04-18 20:27:48.541,0.06864655,-0.019613299999998796,9.83606995
2026-04-18 20:27:48.745,0.0588399,-0.0686465499999988,9.85568325
2026-04-18 20:27:48.941,0.0588399,-0.0686465499999988,9.85568325
2026-04-18 20:27:49.140,-0.04903325,-0.009806649999998793,9.85568325
2026-04-18 20:27:49.340,-0.02941995,-0.04903324999999879,9.8654899
2026-04-18 20:27:49.541,0.0,-0.0980664999999988,9.8262633
2026-04-18 20:27:49.742,-0.0196133,-0.0784531999999988,9.8262633
2026-04-18 20:27:49.940,-0.04903325,-0.029419949999998793,9.85568325
2026-04-18 20:27:50.140,-0.06864655,-0.0686465499999988,9.8654899
2026-04-18 20:27:50.342,-0.0588399,-0.0784531999999988,9.85568325
2026-04-18 20:27:50.541,-0.0784532,-0.05883989999999879,9.85568325
2026-04-18 20:27:50.740,-0.0980665,-0.0686465499999988,9.8458766
2026-04-18 20:27:50.950,-0.08825985,-0.0686465499999988,9.80665
2026-04-18 20:27:51.139,-0.14709975,-0.0196132999999988,9.80665
2026-04-18 20:27:51.346,-0.08825985,-0.05883989999999879,9.89490985
2026-04-18 20:27:51.544,-0.0392266,-0.0686465499999988,9.8262633
2026-04-18 20:27:51.740,-0.0392266,-0.0686465499999988,9.8262633
2026-04-18 20:27:51.940,-0.0980665,-0.05883989999999879,9.9047165
2026-04-18 20:27:52.140,-0.06864655,-0.03922659999999879,9.8458766
2026-04-18 20:27:52.340,-0.04903325,-0.0588398999999988,9.79684335
2026-04-18 20:27:52.540,-0.04903325,-0.0588398999999988,9.79684335
2026-04-18 20:27:52.742,-0.1176798,-0.0686465499999988,9.8654899
2026-04-18 20:27:52.941,-0.0980665,-0.029419949999998793,9.8458766
2026-04-18 20:27:53.143,-0.0784532,-0.0784531999999988,9.8262633
2026-04-18 20:27:53.342,-0.08825985,-0.0882598499999988,9.83606995
2026-04-18 20:27:53.542,-0.08825985,-0.0882598499999988,9.83606995
2026-04-18 20:27:53.742,-0.0980665,-0.0686465499999988,9.83606995
2026-04-18 20:27:53.941,-0.0980665,-0.0784531999999988,9.85568325
2026-04-18 20:27:54.142,-0.10787315,-0.0784531999999988,9.8654899
2026-04-18 20:27:54.342,-0.0980665,-0.0686465499999988,9.8262633
2026-04-18 20:27:54.540,-0.0980665,-0.0686465499999988,9.8262633
2026-04-18 20:27:54.740,-0.10787315,-0.04903324999999879,9.87529655
2026-04-18 20:27:54.940,-0.08825985,-0.0686465499999988,9.8262633
2026-04-18 20:27:55.140,-0.06864655,-0.0980664999999988,9.81645665
2026-04-18 20:27:55.343,-0.0980665,-0.0882598499999988,9.83606995
2026-04-18 20:27:55.540,-0.08825985,-0.0784531999999988,9.85568325
2026-04-18 20:27:55.742,-0.1176798,-0.0882598499999988,9.8654899
2026-04-18 20:27:55.941,-0.16671305,-0.0980664999999988,9.80665
2026-04-18 20:27:56.141,-0.06864655,-0.04903324999999879,9.87529655
2026-04-18 20:27:56.341,-0.1176798,-0.1274864499999988,9.83606995
2026-04-18 20:27:56.541,-0.14709975,-0.1274864499999988,9.7870367
2026-04-18 20:27:56.741,-0.2353596,-0.1078731499999988,9.8458766
2026-04-18 20:27:56.941,-0.3138128,-0.21574629999999878,9.8851032
2026-04-18 20:27:57.140,-0.1176798,-0.15690639999999878,9.93413645
2026-04-18 20:27:57.341,0.0588399,-0.0882598499999988,9.77723005
2026-04-18 20:27:57.540,0.10787315,-0.03922659999999881,9.75761675
2026-04-18 20:27:57.743,-0.0392266,-0.0882598499999988,9.8851032
2026-04-18 20:27:57.944,-0.0784532,-0.1274864499999988,9.8851032
2026-04-18 20:27:58.143,-0.0196133,-0.0882598499999988,9.81645665
2026-04-18 20:27:58.343,-0.196133,-0.1372930999999988,9.75761675
2026-04-18 20:27:58.543,-0.20593965,-0.06864654999999878,10.01258965
2026-04-18 20:27:58.743,-0.10787315,-0.1078731499999988,9.8458766
2026-04-18 20:27:58.944,0.1176798,-0.06864654999999881,9.71839015
2026-04-18 20:27:59.143,-0.10787315,-0.1372930999999988,9.81645665
2026-04-18 20:27:59.343,-0.20593965,-0.09806649999999877,10.0616229
2026-04-18 20:27:59.544,-0.1176798,-0.1569063999999988,9.79684335
2026-04-18 20:27:59.743,0.0784532,-0.029419949999998807,9.7281968
2026-04-18 20:27:59.944,0.0,-0.02941994999999879,9.8851032
2026-04-18 20:28:00.143,0.0,-0.02941994999999879,9.8851032
2026-04-18 20:28:00.344,0.0,-0.02941994999999879,9.8851032
2026-04-18 20:28:00.543,0.0,-0.02941994999999879,9.8851032
2026-04-18 20:28:00.743,-0.24516625,-0.13729309999999878,9.9635564
2026-04-18 20:28:00.944,-0.08825985,-0.1569063999999988,9.7870367
2026-04-18 20:28:01.144,0.08825985,-0.04903324999999881,9.71839015
2026-04-18 20:28:01.344,0.0196133,-0.03922659999999879,9.8458766
2026-04-18 20:28:01.545,-0.0980665,-0.09806649999999878,9.9047165
2026-04-18 20:28:01.743,-0.0980665,-0.09806649999999878,9.9047165
2026-04-18 20:28:01.946,-0.0980665,-0.09806649999999878,9.9047165
2026-04-18 20:28:02.152,-0.0980665,-0.09806649999999878,9.9047165
2026-04-18 20:28:02.346,-0.0980665,-0.09806649999999878,9.9047165
2026-04-18 20:28:02.745,-0.0980665,-0.09806649999999878,9.9047165
2026-04-18 20:28:02.946,-0.0980665,-0.09806649999999878,9.9047165
2026-04-18 20:28:03.147,-0.0980665,-0.09806649999999878,9.9047165
2026-04-18 20:28:03.344,-0.0980665,-0.09806649999999878,9.9047165
2026-04-18 20:28:03.544,-0.0980665,-0.09806649999999878,9.9047165
2026-04-18 20:28:03.744,-0.0980665,-0.09806649999999878,9.9047165
2026-04-18 20:28:03.948,-0.08825985,-0.03922659999999879,9.8654899
2026-04-18 20:28:04.144,-0.08825985,-0.03922659999999879,9.8654899
2026-04-18 20:28:04.343,-0.0392266,-0.0784531999999988,9.79684335
2026-04-18 20:28:04.544,-0.08825985,-0.05883989999999879,9.8851032
2026-04-18 20:28:04.745,-0.08825985,-0.05883989999999879,9.8851032
2026-04-18 20:28:04.942,-0.08825985,-0.05883989999999879,9.8851032
2026-04-18 20:28:05.144,-0.10787315,-0.0882598499999988,9.8458766
2026-04-18 20:28:05.344,-0.1176798,-0.0686465499999988,9.8851032
2026-04-18 20:28:05.543,-0.06864655,-0.0686465499999988,9.7870367
2026-04-18 20:28:05.743,-0.06864655,-0.0686465499999988,9.81645665
2026-04-18 20:28:05.944,-0.10787315,-0.0784531999999988,9.89490985
2026-04-18 20:28:06.143,-0.08825985,-0.0686465499999988,9.8262633
2026-04-18 20:28:06.343,-0.0784532,-0.0490332499999988,9.81645665
2026-04-18 20:28:06.541,-0.08825985,-0.04903324999999879,9.8851032
2026-04-18 20:28:06.745,-0.0980665,-0.0784531999999988,9.85568325
2026-04-18 20:28:06.946,-0.196133,-0.1569063999999988,9.75761675
2026-04-18 20:28:07.146,-0.196133,-0.1569063999999988,9.75761675
2026-04-18 20:28:07.343,-0.196133,-0.1569063999999988,9.75761675
2026-04-18 20:28:07.543,-0.24516625,-0.2059396499999988,9.77723005
2026-04-18 20:28:07.746,-0.1765197,-0.16671304999999878,9.8458766
2026-04-18 20:28:07.947,-0.1569064,-0.1569063999999988,9.8654899
2026-04-18 20:28:08.144,-0.1372931,-0.1863263499999988,9.80665
2026-04-18 20:28:08.343,-0.0588399,-0.15690639999999878,9.89490985
2026-04-18 20:28:08.543,0.02941995,-0.1372930999999988,9.85568325
2026-04-18 20:28:08.743,0.02941995,-0.1372930999999988,9.85568325
2026-04-18 20:28:08.943,0.0196133,-0.0980664999999988,9.83606995
2026-04-18 20:28:09.142,-0.0196133,-0.1274864499999988,9.8458766
2026-04-18 20:28:09.343,-0.0196133,-0.0882598499999988,9.83606995
2026-04-18 20:28:09.543,-0.0196133,-0.019613299999998793,9.8654899
2026-04-18 20:28:09.743,-0.02941995,-0.029419949999998793,9.85568325
2026-04-18 20:28:09.942,-0.1569064,-0.1372930999999988,9.7674234
2026-04-18 20:28:10.142,-0.12748645,-0.08825984999999878,9.89490985
2026-04-18 20:28:10.342,-0.06864655,-0.0882598499999988,9.83606995
2026-04-18 20:28:10.542,-0.1569064,-0.1470997499999988,9.7674234
2026-04-18 20:28:10.748,-0.2745862,-0.19613299999999878,9.9047165
2026-04-18 20:28:10.943,-0.2941995,-0.21574629999999878,9.9047165
2026-04-18 20:28:11.143,-0.1569064,-0.16671304999999878,9.81645665
2026-04-18 20:28:11.352,-0.1176798,-0.1470997499999988,9.81645665
2026-04-18 20:28:11.539,0.0,-0.1078731499999988,9.85568325
2026-04-18 20:28:11.743,0.06864655,-0.1176797999999988,9.7478101
2026-04-18 20:28:11.943,0.0196133,-0.0882598499999988,9.85568325
2026-04-18 20:28:12.144,-0.0392266,-0.0784531999999988,9.91452315
2026-04-18 20:28:12.341,-0.00980665,-0.0784531999999988,9.83606995
2026-04-18 20:28:12.543,-0.00980665,-0.0784531999999988,9.80665
2026-04-18 20:28:12.743,-0.00980665,-0.0784531999999988,9.80665
2026-04-18 20:28:13.142,-0.00980665,-0.0784531999999988,9.80665
2026-04-18 20:28:13.343,-0.00980665,-0.0784531999999988,9.80665
2026-04-18 20:28:13.543,-0.00980665,-0.0784531999999988,9.80665
2026-04-18 20:28:13.743,-0.00980665,-0.0784531999999988,9.80665
2026-04-18 20:28:13.943,-0.00980665,-0.0784531999999988,9.80665
2026-04-18 20:28:14.143,-0.00980665,-0.0784531999999988,9.80665
2026-04-18 20:28:14.343,-0.00980665,-0.0784531999999988,9.80665
2026-04-18 20:28:14.543,-0.1569064,-0.1569063999999988,9.80665
2026-04-18 20:28:14.744,-0.1569064,-0.1569063999999988,9.85568325
2026-04-18 20:28:14.947,-0.16671305,-0.19613299999999878,9.85568325
2026-04-18 20:28:15.142,0.00980665,-0.1372930999999988,9.8654899
2026-04-18 20:28:15.349,0.0980665,-0.06864654999999881,9.75761675
2026-04-18 20:28:15.543,0.04903325,-0.05883989999999879,9.8654899
2026-04-18 20:28:15.743,-0.02941995,-0.1176797999999988,9.85568325
2026-04-18 20:28:15.944,-0.04903325,-0.1078731499999988,9.8262633
2026-04-18 20:28:16.382,-0.0588399,-0.0784531999999988,9.83606995
2026-04-18 20:28:16.622,-0.0784532,-0.0784531999999988,9.85568325
2026-04-18 20:28:16.883,-0.04903325,-0.0490332499999988,9.81645665
2026-04-18 20:28:17.124,-0.0588399,-0.0588398999999988,9.83606995
2026-04-18 20:28:17.382,-0.0784532,-0.0784531999999988,9.83606995
2026-04-18 20:28:17.622,-0.06864655,-0.0588398999999988,9.83606995
2026-04-18 20:28:17.883,-0.06864655,-0.05883989999999879,9.8654899
2026-04-18 20:28:18.123,-0.0588399,-0.0588398999999988,9.8262633
2026-04-18 20:28:18.382,-0.10787315,-0.05883989999999879,9.8654899
2026-04-18 20:28:18.740,-0.10787315,-0.1078731499999988,9.79684335
2026-04-18 20:28:18.963,-0.1765197,-0.1470997499999988,9.81645665
2026-04-18 20:28:19.143,-0.30400615,-0.14709974999999878,9.9047165
2026-04-18 20:28:19.343,-0.2745862,-0.16671304999999878,9.85568325
2026-04-18 20:28:19.545,-0.196133,-0.17651969999999878,9.81645665
2026-04-18 20:28:19.743,-0.196133,-0.17651969999999878,9.81645665
2026-04-18 20:28:19.943,-0.196133,-0.17651969999999878,9.81645665
2026-04-18 20:28:20.142,0.08825985,-0.04903324999999881,9.7478101
2026-04-18 20:28:20.347,0.0392266,-0.0784531999999988,9.8458766
2026-04-18 20:28:20.543,-0.02941995,-0.1372930999999988,9.8851032
2026-04-18 20:28:20.742,-0.0588399,-0.0882598499999988,9.8262633
2026-04-18 20:28:20.948,-0.14709975,-0.0980664999999988,9.7870367
2026-04-18 20:28:21.142,-0.24516625,-0.12748644999999878,9.9243298
2026-04-18 20:28:21.342,-0.28439285000000003,-0.20593964999999878,9.8654899
2026-04-18 20:28:21.544,-0.2745862,-0.2451662499999988,9.7281968
2026-04-18 20:28:21.742,-0.2745862,-0.2451662499999988,9.7281968
2026-04-18 20:28:21.944,-0.42168595,-0.21574629999999878,9.87529655
2026-04-18 20:28:22.142,-0.3726527,-0.2549728999999988,9.8851032
2026-04-18 20:28:22.343,0.0784532,-0.12748644999999878,9.91452315
2026-04-18 20:28:22.542,0.3530394,-0.009806649999998814,9.6889702
2026-04-18 20:28:22.745,0.24516625,0.019613300000001197,9.77723005
2026-04-18 20:28:22.944,-0.0588399,-0.10787314999999878,9.91452315
2026-04-18 20:28:23.342,0.00980665,-0.0490332499999988,9.81645665
2026-04-18 20:28:23.542,0.04903325,-0.0196132999999988,9.81645665
2026-04-18 20:28:23.743,0.0,-0.05883989999999879,9.8654899
2026-04-18 20:28:23.946,-0.02941995,-0.0588398999999988,9.8458766
2026-04-18 20:28:24.142,-0.00980665,-0.0294199499999988,9.8262633
2026-04-18 20:28:24.341,-0.1176798,-0.0980664999999988,9.8262633
2026-04-18 20:28:24.562,-0.2549729,-0.1569063999999988,9.8851032
2026-04-18 20:28:24.743,-0.30400615,-0.20593964999999878,9.85568325
2026-04-18 20:28:24.962,-0.20593965,-0.18632634999999878,9.81645665
2026-04-18 20:28:25.144,-0.02941995,-0.0882598499999988,9.8654899
2026-04-18 20:28:25.342,0.04903325,-0.0588398999999988,9.8262633
2026-04-18 20:28:25.542,0.0588399,-0.0294199499999988,9.80665
2026-04-18 20:28:25.742,0.0392266,-0.0686465499999988,9.85568325
2026-04-18 20:28:25.943,-0.00980665,-0.0980664999999988,9.83606995
2026-04-18 20:28:26.142,-0.0392266,-0.05883989999999879,9.8654899
2026-04-18 20:28:26.342,-0.02941995,-0.02941994999999879,9.87529655
2026-04-18 20:28:26.562,-0.16671305,-0.1176797999999988,9.80665
2026-04-18 20:28:26.744,-0.2549729,-0.21574629999999878,9.87529655
2026-04-18 20:28:26.949,-0.2549729,-0.19613299999999878,9.8458766
2026-04-18 20:28:27.144,-0.14709975,-0.1176797999999988,9.81645665
2026-04-18 20:28:27.342,-0.1176798,-0.1470997499999988,9.83606995
2026-04-18 20:28:27.542,-0.1569064,-0.18632634999999878,9.83606995
2026-04-18 20:28:27.742,-0.1765197,-0.16671304999999878,9.83606995
2026-04-18 20:28:27.943,-0.1765197,-0.1470997499999988,9.8851032
2026-04-18 20:28:28.142,-0.1372931,-0.16671304999999878,9.8654899
2026-04-18 20:28:28.344,-0.08825985,-0.1667130499999988,9.77723005
2026-04-18 20:28:28.542,-0.10787315,-0.1372930999999988,9.8262633
2026-04-18 20:28:28.744,-0.14709975,-0.13729309999999878,9.89490985
2026-04-18 20:28:28.942,-0.16671305,-0.1569063999999988,9.85568325
2026-04-18 20:28:29.139,0.04903325,-0.0784531999999988,9.87529655
2026-04-18 20:28:29.339,0.14709975,-0.009806649999998807,9.7478101
2026-04-18 20:28:29.541,0.10787315,-0.009806649999998796,9.8262633
2026-04-18 20:28:29.765,0.0,-0.04903324999999879,9.9047165
2026-04-18 20:28:29.952,0.0,-0.04903324999999879,9.9047165
2026-04-18 20:28:30.140,0.0,-0.04903324999999879,9.9047165
2026-04-18 20:28:30.342,0.0588399,1.2057721262989826e-15,9.8458766
2026-04-18 20:28:30.542,0.02941995,-0.0392265999999988,9.81645665
2026-04-18 20:28:30.744,0.0,-0.0784531999999988,9.8458766
2026-04-18 20:28:30.942,-0.1372931,-0.0686465499999988,9.81645665
2026-04-18 20:28:31.143,-0.36284605000000003,-0.05883989999999879,9.85568325
2026-04-18 20:28:31.344,-0.5099458,-0.04903324999999878,9.9439431
2026-04-18 20:28:31.540,-0.40207265000000003,-0.0686465499999988,9.83606995
2026-04-18 20:28:31.743,-0.18632635,-0.0980664999999988,9.77723005
2026-04-18 20:28:31.941,-0.16671305,-0.0784531999999988,9.81645665
2026-04-18 20:28:32.142,-0.26477955,-0.03922659999999879,9.87529655
2026-04-18 20:28:32.343,-0.36284605000000003,-0.05883989999999879,9.87529655
2026-04-18 20:28:32.545,-0.32361945000000003,-0.0686465499999988,9.8458766
2026-04-18 20:28:32.747,-0.32361945000000003,-0.0686465499999988,9.8458766
2026-04-18 20:28:32.963,-0.32361945000000003,-0.0686465499999988,9.8458766
2026-04-18 20:28:33.143,-0.24516625,-0.0980664999999988,9.87529655
2026-04-18 20:28:33.342,-0.24516625,-0.0980664999999988,9.87529655
2026-04-18 20:28:33.546,-0.14709975,-0.0686465499999988,9.79684335
2026-04-18 20:28:33.749,-0.14709975,-0.0686465499999988,9.79684335
2026-04-18 20:28:33.942,-0.196133,-0.1176797999999988,9.8851032
2026-04-18 20:28:34.144,-0.18632635,-0.0882598499999988,9.83606995
2026-04-18 20:28:34.339,-0.18632635,-0.0882598499999988,9.83606995
2026-04-18 20:28:34.543,-0.08825985,-0.0882598499999988,9.85568325
2026-04-18 20:28:34.745,-0.1176798,-0.1078731499999988,9.8458766
2026-04-18 20:28:34.942,-0.14709975,-0.0980664999999988,9.8262633
2026-04-18 20:28:35.140,-0.1569064,-0.0784531999999988,9.8458766
2026-04-18 20:28:35.344,-0.1569064,-0.0784531999999988,9.8458766
2026-04-18 20:28:35.554,-0.1569064,-0.0784531999999988,9.8458766
2026-04-18 20:28:35.743,-0.10787315,-0.0980664999999988,9.83606995
2026-04-18 20:28:35.942,-0.14709975,-0.0980664999999988,9.85568325
2026-04-18 20:28:36.142,-0.10787315,-0.0784531999999988,9.83606995
2026-04-18 20:28:36.342,-0.08825985,-0.0784531999999988,9.8262633
2026-04-18 20:28:36.543,-0.10787315,-0.0784531999999988,9.85568325
2026-04-18 20:28:36.742,-0.10787315,-0.0784531999999988,9.85568325
2026-04-18 20:28:36.965,-0.10787315,-0.0784531999999988,9.85568325
2026-04-18 20:28:37.142,-0.10787315,-0.0686465499999988,9.85568325
2026-04-18 20:28:37.342,-0.10787315,-0.0686465499999988,9.8458766
2026-04-18 20:28:37.542,-0.0980665,-0.0882598499999988,9.80665
2026-04-18 20:28:37.742,-0.0980665,-0.0882598499999988,9.80665
2026-04-18 20:28:37.941,-0.1176798,-0.0686465499999988,9.87529655
2026-04-18 20:28:38.162,-0.0980665,-0.0686465499999988,9.8654899
2026-04-18 20:28:38.342,-0.0980665,-0.0784531999999988,9.85568325
2026-04-18 20:28:38.562,-0.1176798,-0.0882598499999988,9.81645665
2026-04-18 20:28:38.747,-0.1176798,-0.0784531999999988,9.8262633
2026-04-18 20:28:38.943,-0.1176798,-0.05883989999999879,9.87529655
2026-04-18 20:28:39.142,-0.1176798,-0.05883989999999879,9.85568325
2026-04-18 20:28:39.342,-0.10787315,-0.0980664999999988,9.81645665
2026-04-18 20:28:39.545,-0.12748645,-0.0882598499999988,9.85568325
2026-04-18 20:28:39.740,-0.12748645,-0.0882598499999988,9.85568325
2026-04-18 20:28:39.944,-0.12748645,-0.0882598499999988,9.85568325
2026-04-18 20:28:40.163,-0.10787315,-0.0686465499999988,9.8458766
2026-04-18 20:28:40.343,-0.0980665,-0.0686465499999988,9.8458766
2026-04-18 20:28:40.567,-0.1176798,-0.0784531999999988,9.83606995
2026-04-18 20:28:40.743,-0.1372931,-0.0882598499999988,9.8458766
2026-04-18 20:28:40.960,-0.12748645,-0.0686465499999988,9.85568325
2026-04-18 20:28:41.142,-0.08825985,-0.0686465499999988,9.80665
2026-04-18 20:28:41.350,-0.08825985,-0.0686465499999988,9.81645665
2026-04-18 20:28:41.543,-0.12748645,-0.0686465499999988,9.9047165
2026-04-18 20:28:41.742,-0.1372931,-0.08825984999999878,9.89490985
2026-04-18 20:28:41.946,-0.0980665,-0.0882598499999988,9.80665
2026-04-18 20:28:42.143,-0.0980665,-0.0882598499999988,9.80665
2026-04-18 20:28:42.343,-0.0980665,-0.0882598499999988,9.80665
2026-04-18 20:28:42.546,-0.0980665,-0.0882598499999988,9.80665
2026-04-18 20:28:42.744,-0.0980665,-0.0882598499999988,9.80665
2026-04-18 20:28:42.947,-0.0980665,-0.0882598499999988,9.8654899
2026-04-18 20:28:43.143,-0.0980665,-0.0882598499999988,9.8654899
2026-04-18 20:28:43.341,-0.0980665,-0.0882598499999988,9.8654899
2026-04-18 20:28:43.544,-0.10787315,-0.0882598499999988,9.83606995
2026-04-18 20:28:43.747,-0.10787315,-0.0980664999999988,9.85568325
2026-04-18 20:28:43.942,-0.10787315,-0.0980664999999988,9.85568325
2026-04-18 20:28:44.139,-0.1176798,-0.0490332499999988,9.8458766
2026-04-18 20:28:44.343,-0.10787315,-0.0588398999999988,9.8262633
2026-04-18 20:28:44.562,-0.1176798,-0.0980664999999988,9.83606995
2026-04-18 20:28:44.744,-0.1176798,-0.0980664999999988,9.8458766
2026-04-18 20:28:44.943,-0.1176798,-0.0980664999999988,9.8458766
2026-04-18 20:28:45.144,-0.1176798,-0.0980664999999988,9.8458766
2026-04-18 20:28:45.343,-0.1176798,-0.0980664999999988,9.8458766
2026-04-18 20:28:45.543,-0.1176798,-0.0980664999999988,9.8458766
2026-04-18 20:28:45.742,-0.10787315,-0.05883989999999879,9.85568325
2026-04-18 20:28:45.943,-0.12748645,-0.0588398999999988,9.8458766
2026-04-18 20:28:46.141,-0.1176798,-0.0980664999999988,9.80665
2026-04-18 20:28:46.341,-0.0980665,-0.0980664999999988,9.83606995
2026-04-18 20:28:46.563,-0.10787315,-0.0686465499999988,9.87529655
2026-04-18 20:28:46.744,-0.12748645,-0.0686465499999988,9.85568325
2026-04-18 20:28:46.966,-0.1372931,-0.0686465499999988,9.8458766
2026-04-18 20:28:47.142,-0.1372931,-0.0686465499999988,9.8458766
2026-04-18 20:28:47.341,-0.0980665,-0.0882598499999988,9.81645665
2026-04-18 20:28:47.545,-0.1372931,-0.0784531999999988,9.8262633
2026-04-18 20:28:47.742,-0.1372931,-0.0784531999999988,9.8262633
2026-04-18 20:28:48.161,-0.1372931,-0.0784531999999988,9.8262633
2026-04-18 20:28:48.350,-0.1372931,-0.0980664999999988,9.8654899
2026-04-18 20:28:48.561,-0.12748645,-0.0784531999999988,9.83606995
2026-04-18 20:28:48.744,-0.08825985,-0.0588398999999988,9.79684335
2026-04-18 20:28:48.963,-0.0980665,-0.0686465499999988,9.81645665
2026-04-18 20:28:49.144,-0.1176798,-0.0882598499999988,9.85568325
2026-04-18 20:28:49.345,-0.12748645,-0.0784531999999988,9.87529655
2026-04-18 20:28:49.543,-0.1372931,-0.0686465499999988,9.8654899
2026-04-18 20:28:49.743,-0.1176798,-0.0784531999999988,9.83606995
2026-04-18 20:28:49.942,-0.0980665,-0.0784531999999988,9.8262633
2026-04-18 20:28:50.162,-0.08825985,-0.0784531999999988,9.85568325
2026-04-18 20:28:50.342,-0.1176798,-0.0686465499999988,9.8458766
2026-04-18 20:28:50.563,-0.1372931,-0.0686465499999988,9.8458766
2026-04-18 20:28:50.742,-0.12748645,-0.0882598499999988,9.83606995
2026-04-18 20:28:50.962,-0.0980665,-0.0882598499999988,9.8262633
2026-04-18 20:28:51.142,-0.0980665,-0.0686465499999988,9.83606995
2026-04-18 20:28:51.341,-0.12748645,-0.0686465499999988,9.8654899
2026-04-18 20:28:51.542,-0.14709975,-0.0784531999999988,9.85568325
2026-04-18 20:28:51.742,-0.1176798,-0.0882598499999988,9.81645665
2026-04-18 20:28:51.943,-0.0980665,-0.0686465499999988,9.81645665
2026-04-18 20:28:52.140,-0.10787315,-0.0686465499999988,9.83606995
2026-04-18 20:28:52.340,-0.12748645,-0.0882598499999988,9.8458766
2026-04-18 20:28:52.542,-0.1372931,-0.0882598499999988,9.87529655
2026-04-18 20:28:52.739,-0.12748645,-0.0686465499999988,9.85568325
2026-04-18 20:28:52.941,-0.12748645,-0.0686465499999988,9.85568325
2026-04-18 20:28:53.139,-0.10787315,-0.0980664999999988,9.81645665
2026-04-18 20:28:53.339,-0.12748645,-0.0980664999999988,9.8458766
2026-04-18 20:28:53.539,-0.12748645,-0.05883989999999879,9.8654899
2026-04-18 20:28:53.739,-0.1176798,-0.05883989999999879,9.85568325
2026-04-18 20:28:53.942,-0.10787315,-0.0980664999999988,9.8458766
2026-04-18 20:28:54.141,-0.12748645,-0.1078731499999988,9.8458766
2026-04-18 20:28:54.480,-0.14709975,-0.0784531999999988,9.83606995
2026-04-18 20:28:54.981,-0.14709975,-0.0686465499999988,9.87529655
2026-04-18 20:28:55.219,-0.12748645,-0.0588398999999988,9.83606995
2026-04-18 20:28:55.480,-0.0980665,-0.0980664999999988,9.81645665
2026-04-18 20:28:55.720,-0.1176798,-0.0882598499999988,9.8458766
2026-04-18 20:28:55.980,-0.14709975,-0.0784531999999988,9.85568325
2026-04-18 20:28:56.220,-0.0980665,-0.1078731499999988,9.83606995
2026-04-18 20:28:56.483,-0.0980665,-0.0784531999999988,9.81645665
2026-04-18 20:28:56.721,-0.14709975,-0.04903324999999879,9.85568325
2026-04-18 20:28:56.983,-0.0980665,-0.0980664999999988,9.79684335
2026-04-18 20:28:57.224,-0.08825985,-0.0980664999999988,9.81645665
2026-04-18 20:28:57.484,-0.12748645,-0.0686465499999988,9.8851032
2026-04-18 20:28:57.723,-0.1569064,-0.05883989999999879,9.85568325
2026-04-18 20:28:57.981,-0.10787315,-0.0882598499999988,9.8262633
2026-04-18 20:28:58.221,-0.12748645,-0.0784531999999988,9.8262633
2026-04-18 20:28:58.482,-0.14709975,-0.0686465499999988,9.8458766
2026-04-18 20:28:58.721,-0.12748645,-0.05883989999999879,9.8851032
2026-04-18 20:28:58.982,-0.1176798,-0.0980664999999988,9.79684335
2026-04-18 20:28:59.222,-0.16671305,-0.0686465499999988,9.85568325
2026-04-18 20:28:59.484,-0.1569064,-0.0686465499999988,9.8654899
2026-04-18 20:28:59.722,-0.08825985,-0.0882598499999988,9.83606995
2026-04-18 20:29:00.223,-0.16671305,-0.0882598499999988,9.81645665
2026-04-18 20:29:00.483,-0.1176798,-0.1078731499999988,9.85568325
2026-04-18 20:29:00.721,-0.0784532,-0.0686465499999988,9.85568325
2026-04-18 20:29:00.981,-0.1765197,-0.0686465499999988,9.87529655
2026-04-18 20:29:01.224,-0.16671305,-0.0980664999999988,9.8458766
2026-04-18 20:29:01.484,-0.0980665,-0.0980664999999988,9.79684335
2026-04-18 20:29:01.722,-0.08825985,-0.0588398999999988,9.83606995
2026-04-18 20:29:01.981,-0.1569064,-0.0980664999999988,9.8654899
2026-04-18 20:29:02.222,-0.12748645,-0.1078731499999988,9.85568325
2026-04-18 20:29:02.484,-0.10787315,-0.0686465499999988,9.8262633
2026-04-18 20:29:02.722,-0.12748645,-0.0392265999999988,9.80665
2026-04-18 20:29:02.986,-0.12748645,-0.1078731499999988,9.85568325
2026-04-18 20:29:03.221,-0.1176798,-0.0784531999999988,9.8262633
2026-04-18 20:29:03.543,-0.12748645,-0.0588398999999988,9.8262633
2026-04-18 20:29:03.768,-0.1372931,-0.0686465499999988,9.87529655
2026-04-18 20:29:03.943,-0.1372931,-0.0686465499999988,9.87529655
2026-04-18 20:29:04.343,-0.1176798,-0.0882598499999988,9.8262633
2026-04-18 20:29:04.542,-0.1176798,-0.0882598499999988,9.8262633
2026-04-18 20:29:04.743,-0.1176798,-0.0882598499999988,9.8262633
2026-04-18 20:29:04.942,-0.12748645,-0.0784531999999988,9.8458766
2026-04-18 20:29:05.146,-0.12748645,-0.0588398999999988,9.8262633
2026-04-18 20:29:05.342,-0.1372931,-0.0784531999999988,9.83606995
2026-04-18 20:29:05.542,-0.1372931,-0.0980664999999988,9.87529655
2026-04-18 20:29:05.742,-0.1176798,-0.0882598499999988,9.85568325
2026-04-18 20:29:05.943,-0.0980665,-0.0588398999999988,9.8262633
2026-04-18 20:29:06.143,-0.12748645,-0.0784531999999988,9.8458766
2026-04-18 20:29:06.342,-0.1569064,-0.0882598499999988,9.8458766
2026-04-18 20:29:06.547,-0.1372931,-0.0784531999999988,9.8262633
2026-04-18 20:29:06.743,-0.1372931,-0.0784531999999988,9.8262633
2026-04-18 20:29:06.946,-0.1372931,-0.0784531999999988,9.8262633
2026-04-18 20:29:07.143,-0.1372931,-0.0784531999999988,9.8262633
2026-04-18 20:29:07.343,-0.14709975,-0.0686465499999988,9.83606995
2026-04-18 20:29:07.544,-0.14709975,-0.0588398999999988,9.81645665
2026-04-18 20:29:07.742,-0.14709975,-0.0588398999999988,9.81645665
2026-04-18 20:29:07.943,-0.10787315,-0.0882598499999988,9.83606995
2026-04-18 20:29:08.143,-0.1176798,-0.0784531999999988,9.8458766
2026-04-18 20:29:08.344,-0.1372931,-0.0686465499999988,9.8654899
2026-04-18 20:29:08.539,-0.14709975,-0.0784531999999988,9.85568325
2026-04-18 20:29:08.744,-0.1372931,-0.0882598499999988,9.83606995
2026-04-18 20:29:08.964,-0.10787315,-0.0882598499999988,9.81645665
2026-04-18 20:29:09.142,-0.10787315,-0.0686465499999988,9.83606995
2026-04-18 20:29:09.342,-0.1372931,-0.0784531999999988,9.87529655
2026-04-18 20:29:09.542,-0.1569064,-0.0882598499999988,9.87529655
2026-04-18 20:29:09.742,-0.1372931,-0.0686465499999988,9.8458766
2026-04-18 20:29:09.944,-0.0980665,-0.0686465499999988,9.81645665
2026-04-18 20:29:10.142,-0.0980665,-0.0686465499999988,9.81645665
2026-04-18 20:29:10.342,0.44129925000000003,-0.08825984999999882,9.65955025
2026-04-18 20:29:10.564,0.28439285000000003,-0.0784531999999988,9.9047165
2026-04-18 20:29:10.744,0.0784532,-0.039226599999998786,9.9047165
2026-04-18 20:29:10.944,0.0980665,-0.0686465499999988,9.8262633
2026-04-18 20:29:11.146,0.14709975,-0.0980664999999988,9.8654899
2026-04-18 20:29:11.342,0.08825985,-0.1274864499999988,9.80665
2026-04-18 20:29:11.545,0.08825985,-0.0588398999999988,9.8262633
2026-04-18 20:29:11.742,0.06864655,-0.0490332499999988,9.83606995
2026-04-18 20:29:11.944,0.0784532,-0.0882598499999988,9.87529655
2026-04-18 20:29:12.140,0.0588399,-0.0980664999999988,9.8262633
2026-04-18 20:29:12.343,0.00980665,-0.03922659999999879,9.83606995
2026-04-18 20:29:12.563,0.0,-0.04903324999999879,9.8851032
2026-04-18 20:29:12.742,0.0,-0.0980664999999988,9.85568325
2026-04-18 20:29:12.963,0.0,-0.0882598499999988,9.81645665
2026-04-18 20:29:13.140,-0.0392266,-0.0490332499999988,9.83606995
2026-04-18 20:29:13.341,-0.0588399,-0.04903324999999879,9.87529655
2026-04-18 20:29:13.540,-0.12748645,-0.1274864499999988,9.80665
2026-04-18 20:29:13.743,-0.12748645,-0.1274864499999988,9.80665
2026-04-18 20:29:13.944,-0.12748645,-0.1274864499999988,9.80665
2026-04-18 20:29:14.141,-0.12748645,-0.1274864499999988,9.80665
2026-04-18 20:29:14.344,-0.1569064,-0.17651969999999878,9.85568325
2026-04-18 20:29:14.542,-0.1372931,-0.16671304999999878,9.8458766
2026-04-18 20:29:14.745,0.0392266,-0.04903324999999878,9.9243298
2026-04-18 20:29:14.963,0.06864655,-0.1078731499999988,9.77723005
2026-04-18 20:29:15.142,0.06864655,-0.0980664999999988,9.8262633
2026-04-18 20:29:15.343,-0.02941995,-0.1176797999999988,9.8654899
2026-04-18 20:29:15.560,-0.02941995,-0.0784531999999988,9.83606995
2026-04-18 20:29:15.743,0.0,-0.0490332499999988,9.83606995
2026-04-18 20:29:15.944,-0.0196133,-0.04903324999999879,9.8654899
2026-04-18 20:29:16.142,-0.0588399,-0.0686465499999988,9.8458766
2026-04-18 20:29:16.345,-0.22555295,-0.1372930999999988,9.77723005
2026-04-18 20:29:16.542,-0.28439285000000003,-0.17651969999999878,9.89490985
2026-04-18 20:29:16.742,-0.2745862,-0.21574629999999878,9.85568325
2026-04-18 20:29:16.969,-0.1765197,-0.1765196999999988,9.79684335
2026-04-18 20:29:17.139,-0.1765197,-0.1765196999999988,9.79684335
2026-04-18 20:29:17.341,0.0588399,-0.0686465499999988,9.79684335
2026-04-18 20:29:17.543,0.06864655,-0.1078731499999988,9.81645665
2026-04-18 20:29:17.742,-0.00980665,-0.1176797999999988,9.85568325
2026-04-18 20:29:17.943,-0.06864655,-0.04903324999999879,9.8654899
2026-04-18 20:29:18.142,-0.06864655,-0.04903324999999879,9.8654899
2026-04-18 20:29:18.345,-0.02941995,-0.0588398999999988,9.8458766
2026-04-18 20:29:18.547,-0.0588399,-0.0980664999999988,9.8262633
2026-04-18 20:29:18.742,-0.0588399,-0.0980664999999988,9.8262633
2026-04-18 20:29:18.942,-0.0588399,-0.0980664999999988,9.8262633
2026-04-18 20:29:19.141,-0.0588399,-0.0980664999999988,9.8262633
2026-04-18 20:29:19.342,-0.0980665,-0.08825984999999878,9.89490985
2026-04-18 20:29:19.543,-0.06864655,-0.0686465499999988,9.8458766
2026-04-18 20:29:19.742,-0.0392266,-0.0490332499999988,9.81645665
2026-04-18 20:29:19.945,-0.10787315,-0.0882598499999988,9.8262633
2026-04-18 20:29:20.143,-0.24516625,-0.1078731499999988,9.8654899
2026-04-18 20:29:20.348,-0.1569064,-0.08825984999999878,9.91452315
2026-04-18 20:29:20.542,0.0,-0.06864654999999881,9.7478101
2026-04-18 20:29:20.742,0.0,-0.0490332499999988,9.8262633
2026-04-18 20:29:20.943,-0.0784532,-0.0784531999999988,9.89490985
2026-04-18 20:29:21.143,-0.0980665,-0.0882598499999988,9.8262633
2026-04-18 20:29:21.342,-0.0980665,-0.0882598499999988,9.8262633
2026-04-18 20:29:21.542,-0.20593965,-0.1372930999999988,9.81645665
2026-04-18 20:29:21.743,-0.2941995,-0.1569063999999988,9.8654899
2026-04-18 20:29:21.947,-0.30400615,-0.20593964999999878,9.83606995
2026-04-18 20:29:22.142,-0.30400615,-0.20593964999999878,9.83606995
2026-04-18 20:29:22.344,-0.36284605000000003,-0.21574629999999878,9.8458766
2026-04-18 20:29:22.544,-0.42168595,-0.2647795499999988,9.8654899
2026-04-18 20:29:22.748,-0.42168595,-0.2647795499999988,9.8654899
2026-04-18 20:29:22.942,-0.42168595,-0.2647795499999988,9.8654899
2026-04-18 20:29:23.140,-0.42168595,-0.2647795499999988,9.8654899
2026-04-18 20:29:23.541,0.22555295,1.2009682532858392e-15,9.80665
2026-04-18 20:29:23.742,0.22555295,1.2009682532858392e-15,9.80665
2026-04-18 20:29:23.944,0.22555295,1.2009682532858392e-15,9.80665
2026-04-18 20:29:24.142,0.22555295,1.2009682532858392e-15,9.80665
2026-04-18 20:29:24.343,-0.20593965,-0.17651969999999878,9.8458766
2026-04-18 20:29:24.541,-0.2745862,-0.18632634999999878,9.9047165
2026-04-18 20:29:24.742,-0.18632635,-0.1274864499999988,9.87529655
2026-04-18 20:29:24.945,-0.1176798,-0.1078731499999988,9.8262633
2026-04-18 20:29:25.142,-0.12748645,-0.17651969999999878,9.81645665
2026-04-18 20:29:25.343,-0.1569064,-0.18632634999999878,9.8262633
2026-04-18 20:29:25.544,-0.14709975,-0.1372930999999988,9.85568325
2026-04-18 20:29:25.742,-0.12748645,-0.1274864499999988,9.8851032
2026-04-18 20:29:25.942,-0.12748645,-0.1569063999999988,9.8458766
2026-04-18 20:29:26.143,-0.12748645,-0.16671304999999878,9.81645665
2026-04-18 20:29:26.342,-0.12748645,-0.1569063999999988,9.8458766
2026-04-18 20:29:26.543,0.02941995,-0.039226599999998786,9.93413645
2026-04-18 20:29:26.748,0.02941995,-0.039226599999998786,9.93413645
2026-04-18 20:29:26.946,0.02941995,-0.039226599999998786,9.93413645
2026-04-18 20:29:27.140,0.02941995,-0.039226599999998786,9.93413645
2026-04-18 20:29:27.343,0.02941995,-0.039226599999998786,9.93413645
2026-04-18 20:29:27.543,0.02941995,-0.039226599999998786,9.93413645
2026-04-18 20:29:27.743,0.0,-0.04903324999999879,9.85568325
2026-04-18 20:29:27.943,0.0,-0.0294199499999988,9.81645665
2026-04-18 20:29:28.143,-0.02941995,-0.0294199499999988,9.81645665
2026-04-18 20:29:28.344,-0.0392266,-0.05883989999999879,9.8654899
2026-04-18 20:29:28.543,-0.0392266,-0.05883989999999879,9.8654899
2026-04-18 20:29:28.743,-0.1765197,-0.1078731499999988,9.7870367
2026-04-18 20:29:28.943,-0.26477955,-0.12748644999999878,9.89490985
2026-04-18 20:29:29.142,-0.26477955,-0.12748644999999878,9.89490985
2026-04-18 20:29:29.343,-0.16671305,-0.1667130499999988,9.80665
2026-04-18 20:29:29.542,-0.1372931,-0.1274864499999988,9.8458766
2026-04-18 20:29:29.742,-0.16671305,-0.1274864499999988,9.85568325
2026-04-18 20:29:29.942,-0.16671305,-0.1765196999999988,9.80665
2026-04-18 20:29:30.142,-0.14709975,-0.20593964999999878,9.8262633
2026-04-18 20:29:30.344,-0.1569064,-0.1372930999999988,9.85568325
2026-04-18 20:29:30.542,-0.14709975,-0.1274864499999988,9.8458766
2026-04-18 20:29:30.742,0.06864655,-0.05883989999999878,9.9635564
2026-04-18 20:29:30.943,0.12748645,-0.0784531999999988,9.79684335
2026-04-18 20:29:31.141,0.1372931,-0.0098066499999988,9.79684335
2026-04-18 20:29:31.342,0.00980665,-0.04903324999999879,9.85568325
2026-04-18 20:29:31.542,-0.0196133,-0.0784531999999988,9.8654899
2026-04-18 20:29:31.742,-0.0196133,-0.0784531999999988,9.8654899
2026-04-18 20:29:31.942,-0.0196133,-0.0784531999999988,9.8654899
2026-04-18 20:29:32.142,-0.02941995,-0.019613299999998793,9.8458766
2026-04-18 20:29:32.461,-0.0392266,-0.03922659999999879,9.8458766
2026-04-18 20:29:32.705,-0.0588399,-0.04903324999999879,9.8654899
2026-04-18 20:29:32.961,-0.0392266,-0.029419949999998793,9.83606995
2026-04-18 20:29:33.201,-0.1176798,1.2093750310588401e-15,9.87529655
2026-04-18 20:29:33.462,-0.00980665,1.2081740628055542e-15,9.8654899
2026-04-18 20:29:33.742,-0.0588399,-0.009806649999998796,9.8262633
2026-04-18 20:29:33.947,0.0196133,-0.009806649999998798,9.81645665
2026-04-18 20:29:34.143,0.0196133,-0.009806649999998798,9.81645665
2026-04-18 20:29:34.348,-0.0196133,-0.019613299999998793,9.85568325
2026-04-18 20:29:34.546,-0.0196133,-0.0490332499999988,9.83606995
2026-04-18 20:29:34.743,-0.0196133,-0.0490332499999988,9.83606995
2026-04-18 20:29:34.945,-0.0196133,-0.0490332499999988,9.83606995
2026-04-18 20:29:35.144,-0.0196133,-0.0490332499999988,9.83606995
2026-04-18 20:29:35.348,-0.0196133,-0.0490332499999988,9.83606995
2026-04-18 20:29:35.542,-0.0196133,-0.0490332499999988,9.83606995
2026-04-18 20:29:35.743,-0.6276256,-0.0980664999999988,9.81645665
2026-04-18 20:29:35.947,-0.44129925000000003,-0.1274864499999988,9.7478101
2026-04-18 20:29:36.142,-0.44129925000000003,-0.1274864499999988,9.7478101
2026-04-18 20:29:36.344,-0.08825985,-0.2059396499999988,9.67916355
2026-04-18 20:29:36.542,-0.04903325,-0.0686465499999988,9.8458766
2026-04-18 20:29:36.742,-0.14709975,0.009806650000001211,9.8851032
2026-04-18 20:29:36.942,-0.0980665,-0.029419949999998793,9.83606995
2026-04-18 20:29:37.142,-0.0980665,-0.0980664999999988,9.83606995
2026-04-18 20:29:37.341,-0.10787315,-0.0980664999999988,9.8458766
2026-04-18 20:29:37.543,-0.12748645,-0.0490332499999988,9.8458766
2026-04-18 20:29:37.743,-0.14709975,-0.029419949999998793,9.85568325
2026-04-18 20:29:37.944,-0.14709975,-0.029419949999998793,9.85568325
2026-04-18 20:29:38.143,-0.14709975,-0.029419949999998793,9.85568325
2026-04-18 20:29:38.344,-0.14709975,-0.029419949999998793,9.85568325
2026-04-18 20:29:38.542,-0.1569064,-0.03922659999999879,9.8851032
2026-04-18 20:29:38.742,-0.14709975,-0.0784531999999988,9.8458766
2026-04-18 20:29:38.943,-0.14709975,-0.1078731499999988,9.79684335
2026-04-18 20:29:39.142,-0.12748645,-0.0686465499999988,9.8262633
2026-04-18 20:29:39.342,-0.16671305,-0.029419949999998793,9.83606995
2026-04-18 20:29:39.541,-0.1372931,-0.0784531999999988,9.8654899
2026-04-18 20:29:39.753,-0.12748645,-0.0784531999999988,9.85568325
2026-04-18 20:29:39.951,-0.12748645,-0.0784531999999988,9.85568325
2026-04-18 20:29:40.142,-0.12748645,-0.0784531999999988,9.85568325
2026-04-18 20:29:40.343,-0.12748645,-0.0784531999999988,9.85568325
2026-04-18 20:29:40.543,-0.12748645,-0.0784531999999988,9.85568325
2026-04-18 20:29:40.743,-0.12748645,-0.0784531999999988,9.85568325
2026-04-18 20:29:40.945,-0.12748645,-0.0784531999999988,9.85568325
2026-04-18 20:29:41.142,-0.1176798,-0.0784531999999988,9.8458766
2026-04-18 20:29:41.343,-0.1372931,-0.0686465499999988,9.83606995
2026-04-18 20:29:41.542,-0.196133,-0.0686465499999988,9.85568325
2026-04-18 20:29:41.743,-0.18632635,-0.0686465499999988,9.8654899
2026-04-18 20:29:41.942,-0.18632635,-0.0686465499999988,9.8654899
2026-04-18 20:29:42.142,-0.10787315,-0.0882598499999988,9.81645665
2026-04-18 20:29:42.342,-0.14709975,-0.0882598499999988,9.8458766
2026-04-18 20:29:42.542,-0.16671305,-0.0686465499999988,9.8654899
2026-04-18 20:29:42.740,-0.12748645,-0.0784531999999988,9.85568325
2026-04-18 20:29:42.944,-0.06864655,-0.1176797999999988,9.83606995
2026-04-18 20:29:43.142,-0.0784532,-0.0882598499999988,9.8262633
2026-04-18 20:29:43.342,-0.14709975,-0.0490332499999988,9.8458766
2026-04-18 20:29:43.548,-0.1765197,-0.0686465499999988,9.85568325
2026-04-18 20:29:43.740,-0.1765197,-0.0686465499999988,9.85568325
2026-04-18 20:29:43.942,-0.04903325,-0.0980664999999988,9.8262633
2026-04-18 20:29:44.142,-0.0980665,-0.0588398999999988,9.8458766
2026-04-18 20:29:44.345,-0.16671305,-0.0784531999999988,9.87529655
2026-04-18 20:29:44.546,-0.1569064,-0.0882598499999988,9.8654899
2026-04-18 20:29:44.745,-0.0980665,-0.0588398999999988,9.81645665
2026-04-18 20:29:44.942,-0.06864655,-0.0686465499999988,9.79684335
2026-04-18 20:29:45.143,-0.10787315,-0.0980664999999988,9.83606995
2026-04-18 20:29:45.341,-0.14709975,-0.0980664999999988,9.8654899
2026-04-18 20:29:45.542,-0.1372931,-0.05883989999999879,9.87529655
2026-04-18 20:29:45.742,-0.1372931,-0.05883989999999879,9.87529655
2026-04-18 20:29:45.944,-0.0784532,-0.0980664999999988,9.83606995
2026-04-18 20:29:46.143,-0.10787315,-0.1176797999999988,9.83606995
2026-04-18 20:29:46.342,-0.1569064,-0.05883989999999879,9.85568325
2026-04-18 20:29:46.543,-0.14709975,-0.0490332499999988,9.83606995
2026-04-18 20:29:46.742,-0.14709975,-0.0490332499999988,9.83606995
2026-04-18 20:29:46.943,-0.0784532,-0.0882598499999988,9.8458766
2026-04-18 20:29:47.142,-0.1372931,-0.0784531999999988,9.85568325
2026-04-18 20:29:47.346,-0.1569064,-0.0882598499999988,9.85568325
2026-04-18 20:29:47.545,-0.10787315,-0.0882598499999988,9.8458766
2026-04-18 20:29:47.740,-0.10787315,-0.0882598499999988,9.8458766
2026-04-18 20:29:47.943,-0.1176798,-0.0588398999999988,9.8262633
2026-04-18 20:29:48.142,-0.1176798,-0.0588398999999988,9.8262633
2026-04-18 20:29:48.343,-0.12748645,-0.0784531999999988,9.85568325
2026-04-18 20:29:48.549,-0.08825985,-0.0784531999999988,9.83606995
2026-04-18 20:29:48.742,-0.08825985,-0.0784531999999988,9.83606995
2026-04-18 20:29:48.944,-0.2157463,-0.17651969999999878,9.81645665
2026-04-18 20:29:49.143,-0.1765197,-0.20593964999999878,9.8458766
2026-04-18 20:29:49.355,-0.1765197,-0.20593964999999878,9.8458766
2026-04-18 20:29:49.540,-0.1765197,-0.20593964999999878,9.8458766
2026-04-18 20:29:49.743,0.12748645,-0.0196132999999988,9.81645665
2026-04-18 20:29:50.142,0.26477955,-0.1078731499999988,9.8262633
2026-04-18 20:29:50.341,0.2745862,-0.04903324999999881,9.7674234
2026-04-18 20:29:50.542,0.10787315,-0.0588398999999988,9.8262633
2026-04-18 20:29:50.742,-0.0784532,-0.0784531999999988,9.91452315
2026-04-18 20:29:50.945,-0.10787315,-0.16671304999999878,9.91452315
2026-04-18 20:29:51.141,-0.0588399,-0.1765196999999988,9.77723005
2026-04-18 20:29:51.341,0.1176798,-0.019613299999998782,9.9439431
2026-04-18 20:29:51.542,0.18632635,-0.0098066499999988,9.80665
2026-04-18 20:29:51.742,0.18632635,-0.03922659999999881,9.7478101
2026-04-18 20:29:51.943,0.0392266,-0.0686465499999988,9.8851032
2026-04-18 20:29:52.142,0.0,-0.0784531999999988,9.8851032
2026-04-18 20:29:52.343,0.02941995,-0.0686465499999988,9.79684335
2026-04-18 20:29:52.543,0.04903325,-0.03922659999999879,9.8654899
2026-04-18 20:29:52.740,0.04903325,-0.03922659999999879,9.8654899
2026-04-18 20:29:52.943,0.0,-0.0686465499999988,9.8262633
2026-04-18 20:29:53.143,-0.02941995,-0.0686465499999988,9.8458766
2026-04-18 20:29:53.342,-0.0196133,-0.03922659999999879,9.8458766
2026-04-18 20:29:53.545,-0.196133,-0.1372930999999988,9.79684335
2026-04-18 20:29:53.743,-0.196133,-0.1372930999999988,9.79684335
2026-04-18 20:29:53.944,-0.44129925000000003,-0.2549728999999988,9.85568325
2026-04-18 20:29:54.142,-0.44129925000000003,-0.2549728999999988,9.85568325
2026-04-18 20:29:54.342,-0.36284605000000003,-0.24516624999999878,9.8654899
2026-04-18 20:29:54.543,-0.24516625,-0.20593964999999878,9.83606995
2026-04-18 20:29:54.743,-0.24516625,-0.20593964999999878,9.83606995
2026-04-18 20:29:54.942,-0.24516625,-0.20593964999999878,9.83606995
2026-04-18 20:29:55.142,-0.36284605000000003,-0.24516624999999878,9.85568325
2026-04-18 20:29:55.342,-0.2941995,-0.18632634999999878,9.8458766
2026-04-18 20:29:55.545,-0.2157463,-0.16671304999999878,9.81645665
2026-04-18 20:29:55.742,-0.2157463,-0.16671304999999878,9.81645665
2026-04-18 20:29:55.941,0.20593965,-0.03922659999999879,9.85568325
2026-04-18 20:29:56.143,0.34323275,-0.019613299999998807,9.73800345
2026-04-18 20:29:56.341,0.34323275,-0.019613299999998807,9.73800345
2026-04-18 20:29:56.539,0.34323275,-0.019613299999998807,9.73800345
2026-04-18 20:29:56.743,0.04903325,-0.0686465499999988,9.8458766
2026-04-18 20:29:56.942,0.12748645,1.1997672850325534e-15,9.79684335
2026-04-18 20:29:57.142,0.0392266,-0.0686465499999988,9.83606995
2026-04-18 20:29:57.342,0.0392266,-0.0686465499999988,9.83606995
2026-04-18 20:29:57.543,0.0392266,-0.0686465499999988,9.83606995
2026-04-18 20:29:57.742,0.0392266,-0.0686465499999988,9.83606995
2026-04-18 20:29:57.943,0.0392266,-0.0686465499999988,9.83606995
2026-04-18 20:29:58.343,0.0392266,-0.0686465499999988,9.83606995
2026-04-18 20:29:58.542,-0.38245935,-0.0490332499999988,9.81645665
2026-04-18 20:29:58.742,-0.5295591,-0.05883989999999878,9.93413645
2026-04-18 20:29:58.966,-0.44129925000000003,-0.1078731499999988,9.83606995
2026-04-18 20:29:59.142,-0.44129925000000003,-0.1078731499999988,9.83606995
2026-04-18 20:29:59.342,-0.44129925000000003,-0.1078731499999988,9.83606995
2026-04-18 20:29:59.542,-0.2157463,-0.05883989999999881,9.77723005
2026-04-18 20:29:59.743,-0.2745862,-0.0784531999999988,9.8262633
2026-04-18 20:29:59.942,-0.26477955,-0.0784531999999988,9.8851032
2026-04-18 20:30:00.142,-0.20593965,-0.0882598499999988,9.8458766
2026-04-18 20:30:00.342,-0.16671305,-0.0686465499999988,9.81645665
2026-04-18 20:30:00.543,-0.16671305,-0.0588398999999988,9.8262633
2026-04-18 20:30:00.742,-0.16671305,-0.0588398999999988,9.8262633
2026-04-18 20:30:00.963,-0.16671305,-0.0588398999999988,9.8262633
2026-04-18 20:30:01.142,-0.16671305,-0.0588398999999988,9.8262633
2026-04-18 20:30:01.342,0.28439285000000003,-0.10787314999999882,9.67916355
2026-04-18 20:30:01.542,-0.0196133,-0.11767979999999878,9.89490985
2026-04-18 20:30:01.742,-0.2941995,-0.16671304999999878,9.9439431
2026-04-18 20:30:01.942,-0.2941995,-0.16671304999999878,9.9439431
2026-04-18 20:30:02.142,0.0,-0.1569063999999988,9.83606995
2026-04-18 20:30:02.343,0.1765197,-0.0882598499999988,9.81645665
2026-04-18 20:30:02.543,0.1569064,-0.01961329999999881,9.7085835
2026-04-18 20:30:02.743,-0.0784532,-0.1372930999999988,9.8262633
2026-04-18 20:30:02.943,-0.24516625,-0.20593964999999878,9.9831697
2026-04-18 20:30:03.142,-0.46091255,-0.2549728999999988,9.87529655
2026-04-18 20:30:03.342,-0.4314926,-0.22555294999999878,9.8458766
2026-04-18 20:30:03.544,-0.2745862,-0.2059396499999988,9.7870367
2026-04-18 20:30:03.742,-0.2745862,-0.2059396499999988,9.7870367
2026-04-18 20:30:03.942,0.00980665,-0.12748644999999878,9.97336305
2026-04-18 20:30:04.142,0.196133,-0.0882598499999988,9.77723005
2026-04-18 20:30:04.342,0.3334261,0.029419950000001197,9.7674234
2026-04-18 20:30:04.562,0.04903325,-0.05883989999999879,9.87529655
2026-04-18 20:30:04.741,-0.12748645,-0.15690639999999878,9.9047165
2026-04-18 20:30:04.944,-0.00980665,-0.0490332499999988,9.83606995
2026-04-18 20:30:05.142,0.10787315,0.019613300000001197,9.79684335
2026-04-18 20:30:05.343,0.0196133,-0.0490332499999988,9.8458766
2026-04-18 20:30:05.545,-0.06864655,-0.1176797999999988,9.8458766
2026-04-18 20:30:05.748,-0.06864655,-0.1176797999999988,9.8458766
2026-04-18 20:30:05.942,-0.06864655,-0.1176797999999988,9.8458766
2026-04-18 20:30:06.142,-0.04903325,-0.0490332499999988,9.83606995
2026-04-18 20:30:06.340,-0.10787315,-0.0882598499999988,9.87529655
2026-04-18 20:30:06.542,-0.0588399,-0.0784531999999988,9.85568325
2026-04-18 20:30:06.742,-0.0196133,-0.0294199499999988,9.80665
2026-04-18 20:30:06.944,-0.06864655,-0.019613299999998793,9.8458766
2026-04-18 20:30:07.143,-0.06864655,-0.019613299999998793,9.8458766
2026-04-18 20:30:07.347,-0.06864655,-0.019613299999998793,9.8458766
2026-04-18 20:30:07.542,-0.06864655,-0.019613299999998793,9.8458766
2026-04-18 20:30:07.741,-0.26477955,-0.1569063999999988,9.85568325
2026-04-18 20:30:07.942,-0.30400615,-0.2157462999999988,9.7478101
2026-04-18 20:30:08.161,-0.3726527,-0.20593964999999878,9.87529655
2026-04-18 20:30:08.341,-0.4903325,-0.2843928499999988,9.8654899
2026-04-18 20:30:08.567,-0.36284605000000003,-0.2745861999999988,9.85568325
2026-04-18 20:30:08.742,-0.36284605000000003,-0.2745861999999988,9.85568325
2026-04-18 20:30:08.942,-0.36284605000000003,-0.2745861999999988,9.85568325
2026-04-18 20:30:09.141,-0.36284605000000003,-0.2745861999999988,9.85568325
2026-04-18 20:30:09.341,0.20593965,-0.03922659999999879,9.89490985
2026-04-18 20:30:09.541,0.0392266,-0.05883989999999879,9.89490985
2026-04-18 20:30:09.742,0.0392266,-0.05883989999999879,9.89490985
2026-04-18 20:30:09.942,0.0392266,-0.05883989999999879,9.89490985
2026-04-18 20:30:10.141,0.02941995,-0.019613299999998796,9.83606995
2026-04-18 20:30:10.581,-0.0784532,-0.0686465499999988,9.8851032
2026-04-18 20:30:10.823,-0.06864655,-0.03922659999999879,9.83606995
2026-04-18 20:30:11.082,-0.0588399,-0.0588398999999988,9.83606995
2026-04-18 20:30:11.321,-0.0784532,-0.0980664999999988,9.85568325
2026-04-18 20:30:11.580,-0.04903325,-0.0294199499999988,9.8262633
2026-04-18 20:30:11.822,-0.0784532,-0.029419949999998793,9.8654899
2026-04-18 20:30:12.081,-0.0980665,-0.0784531999999988,9.85568325
2026-04-18 20:30:12.322,-0.0784532,-0.0882598499999988,9.79684335
2026-04-18 20:30:12.580,-0.10787315,-0.03922659999999879,9.8851032
2026-04-18 20:30:12.822,-0.12748645,-0.05883989999999879,9.8654899
2026-04-18 20:30:13.082,-0.08825985,-0.0490332499999988,9.8262633
2026-04-18 20:30:13.322,-0.0784532,-0.0686465499999988,9.8262633
2026-04-18 20:30:13.579,-0.12748645,-0.03922659999999879,9.83606995
2026-04-18 20:30:13.825,-0.10787315,-0.0490332499999988,9.8262633
2026-04-18 20:30:14.082,-0.08825985,-0.0686465499999988,9.8262633
2026-04-18 20:30:14.321,-0.06864655,-0.05883989999999879,9.85568325
2026-04-18 20:30:14.580,-0.10787315,-0.0686465499999988,9.83606995
2026-04-18 20:30:14.822,-0.1176798,-0.0784531999999988,9.8458766
2026-04-18 20:30:15.081,-0.08825985,-0.0588398999999988,9.83606995
2026-04-18 20:30:15.321,-0.0784532,-0.0294199499999988,9.80665
2026-04-18 20:30:15.582,-0.53936575,-0.2745861999999988,9.9635564
2026-04-18 20:30:15.820,-0.5099458,-0.2843928499999988,9.85568325
2026-04-18 20:30:16.081,-0.36284605000000003,-0.19613299999999878,9.81645665
2026-04-18 20:30:16.321,-0.24516625,-0.19613299999999878,9.8458766
2026-04-18 20:30:16.580,-0.32361945000000003,-0.25497289999999884,9.80665
2026-04-18 20:30:16.821,-0.0196133,-0.12748644999999878,9.99297635
2026-04-18 20:30:17.081,0.26477955,-0.039226599999998814,9.7085835
2026-04-18 20:30:17.321,0.34323275,0.039226600000001194,9.7281968
2026-04-18 20:30:17.581,0.0,-0.1274864499999988,9.87529655
2026-04-18 20:30:17.821,-0.0196133,-0.1078731499999988,9.8262633
2026-04-18 20:30:18.081,0.0,-0.0686465499999988,9.8458766
2026-04-18 20:30:18.320,0.0196133,-0.0490332499999988,9.8262633
2026-04-18 20:30:18.581,-0.0196133,-0.05883989999999879,9.85568325
2026-04-18 20:30:18.943,-0.04903325,-0.0784531999999988,9.85568325
2026-04-18 20:30:19.141,-0.0784532,-0.0588398999999988,9.83606995
2026-04-18 20:30:19.342,-0.06864655,-0.03922659999999879,9.8654899
2026-04-18 20:30:19.544,-0.0784532,-0.0784531999999988,9.85568325
2026-04-18 20:30:19.742,-0.0588399,-0.0588398999999988,9.8262633
2026-04-18 20:30:19.942,-0.0588399,-0.0490332499999988,9.81645665
2026-04-18 20:30:20.140,-0.0588399,-0.0490332499999988,9.81645665
2026-04-18 20:30:20.342,-0.0588399,-0.0490332499999988,9.81645665
2026-04-18 20:30:20.563,-0.0588399,-0.0490332499999988,9.81645665
2026-04-18 20:30:20.745,-0.0588399,-0.0490332499999988,9.81645665
2026-04-18 20:30:21.142,-0.0588399,-0.0490332499999988,9.81645665
2026-04-18 20:30:21.341,-0.0784532,-0.0490332499999988,9.79684335
2026-04-18 20:30:21.539,-0.10787315,-0.03922659999999879,9.8654899
2026-04-18 20:30:21.740,-0.10787315,-0.03922659999999879,9.89490985
2026-04-18 20:30:21.942,-0.06864655,-0.0686465499999988,9.83606995
2026-04-18 20:30:22.141,-0.06864655,-0.0686465499999988,9.83606995
2026-04-18 20:30:22.341,-0.1176798,-0.05883989999999879,9.87529655
2026-04-18 20:30:22.539,-0.1176798,-0.03922659999999879,9.85568325
2026-04-18 20:30:22.741,-0.06864655,-0.0588398999999988,9.80665
2026-04-18 20:30:22.942,-0.0784532,-0.0686465499999988,9.83606995
2026-04-18 20:30:23.141,-0.1372931,-0.05883989999999879,9.8851032
2026-04-18 20:30:23.340,-0.08825985,-0.0490332499999988,9.83606995
2026-04-18 20:30:23.741,-0.04903325,-0.0490332499999988,9.79684335
2026-04-18 20:30:23.942,-0.10787315,-0.0784531999999988,9.87529655
2026-04-18 20:30:24.141,-0.08825985,-0.0588398999999988,9.81645665
2026-04-18 20:30:24.341,-0.06864655,-0.0588398999999988,9.81645665
2026-04-18 20:30:24.542,-0.0784532,-0.0686465499999988,9.85568325
2026-04-18 20:30:24.741,-0.0980665,-0.04903324999999879,9.85568325
2026-04-18 20:30:24.942,-0.0784532,-0.0588398999999988,9.83606995
2026-04-18 20:30:25.141,-0.0588399,-0.0882598499999988,9.81645665
2026-04-18 20:30:25.342,-0.0588399,-0.0588398999999988,9.83606995
2026-04-18 20:30:25.542,-0.0980665,-0.0686465499999988,9.8458766
2026-04-18 20:30:25.745,-0.0980665,-0.0686465499999988,9.8458766
2026-04-18 20:30:25.945,-0.0980665,-0.0686465499999988,9.8458766
2026-04-18 20:30:26.142,-0.0980665,-0.0686465499999988,9.8458766
2026-04-18 20:30:26.341,-0.0980665,-0.0686465499999988,9.8458766
2026-04-18 20:30:26.538,-0.12748645,-0.0882598499999988,9.87529655
2026-04-18 20:30:26.744,-0.08825985,-0.03922659999999879,9.83606995
2026-04-18 20:30:26.943,-0.0784532,-0.029419949999998793,9.83606995
2026-04-18 20:30:27.142,-0.0784532,-0.029419949999998793,9.83606995
2026-04-18 20:30:27.341,-0.0980665,-0.0784531999999988,9.81645665
2026-04-18 20:30:27.542,-0.0980665,-0.029419949999998793,9.83606995
2026-04-18 20:30:27.741,-0.0980665,-0.029419949999998786,9.9047165
2026-04-18 20:30:27.942,-0.08825985,-0.0882598499999988,9.8654899
2026-04-18 20:30:28.140,-0.08825985,-0.0882598499999988,9.8654899
2026-04-18 20:30:28.341,-0.10787315,-0.03922659999999879,9.8458766
2026-04-18 20:30:28.542,-0.12748645,-0.04903324999999879,9.9047165
2026-04-18 20:30:28.741,-0.08825985,-0.0784531999999988,9.81645665
2026-04-18 20:30:28.941,-0.0588399,-0.0686465499999988,9.79684335
2026-04-18 20:30:29.141,-0.1176798,-0.03922659999999879,9.89490985
2026-04-18 20:30:29.341,-0.0980665,-0.0882598499999988,9.87529655
2026-04-18 20:30:29.542,-0.0392266,-0.0980664999999988,9.79684335
2026-04-18 20:30:29.742,-0.0392266,-0.0980664999999988,9.79684335
2026-04-18 20:30:29.941,-0.0392266,-0.0980664999999988,9.79684335
2026-04-18 20:30:30.140,-0.08825985,-0.0882598499999988,9.8262633
2026-04-18 20:30:30.341,-0.06864655,-0.0686465499999988,9.81645665
2026-04-18 20:30:30.544,-0.08825985,-0.04903324999999879,9.8654899
2026-04-18 20:30:30.741,-0.08825985,-0.05883989999999879,9.8654899
2026-04-18 20:30:30.964,-0.06864655,-0.0784531999999988,9.83606995
2026-04-18 20:30:31.140,-0.08825985,-0.0686465499999988,9.87529655
2026-04-18 20:30:31.341,-0.1569064,-0.1176797999999988,9.79684335
2026-04-18 20:30:31.541,-0.40207265000000003,-0.2059396499999988,9.7478101
2026-04-18 20:30:31.746,-0.392266,-0.20593964999999878,9.97336305
2026-04-18 20:30:31.947,-0.392266,-0.20593964999999878,9.97336305
2026-04-18 20:30:32.142,0.20593965,1.1841546977398374e-15,9.6693569
2026-04-18 20:30:32.341,0.0784532,-0.0588398999999988,9.80665
2026-04-18 20:30:32.544,-0.2941995,-0.24516624999999878,9.83606995
2026-04-18 20:30:32.741,-0.2941995,-0.24516624999999878,9.83606995
2026-04-18 20:30:32.942,-0.48052585000000003,-0.23535959999999878,9.93413645
2026-04-18 20:30:33.142,-0.392266,-0.2549728999999988,9.81645665
2026-04-18 20:30:33.341,-0.24516625,-0.2353595999999988,9.77723005
2026-04-18 20:30:33.547,-0.2157463,-0.18632634999999878,9.81645665
2026-04-18 20:30:33.741,-0.2157463,-0.18632634999999878,9.81645665
2026-04-18 20:30:33.950,-0.2157463,-0.18632634999999878,9.81645665
2026-04-18 20:30:34.141,-0.2157463,-0.18632634999999878,9.81645665
2026-04-18 20:30:34.343,-0.2157463,-0.18632634999999878,9.81645665
2026-04-18 20:30:34.542,-0.2157463,-0.18632634999999878,9.81645665
2026-04-18 20:30:34.741,-0.2157463,-0.18632634999999878,9.81645665
2026-04-18 20:30:34.941,-0.3726527,-0.3040061499999988,10.002783
2026-04-18 20:30:35.138,-0.0980665,-0.1078731499999988,9.8851032
2026-04-18 20:30:35.340,0.2353596,0.029419950000001183,9.6889702
2026-04-18 20:30:35.544,0.16671305,-0.05883989999999881,9.75761675
2026-04-18 20:30:35.744,0.16671305,-0.05883989999999881,9.75761675
2026-04-18 20:30:35.942,0.16671305,-0.05883989999999881,9.75761675
2026-04-18 20:30:36.161,0.16671305,-0.05883989999999881,9.75761675
2026-04-18 20:30:36.340,-0.1569064,-0.19613299999999878,9.8458766
2026-04-18 20:30:36.542,-0.0980665,-0.1863263499999988,9.77723005
2026-04-18 20:30:36.741,-0.1176798,-0.1569063999999988,9.79684335
2026-04-18 20:30:36.950,-0.08825985,-0.14709974999999878,9.91452315
2026-04-18 20:30:37.141,0.0392266,-0.1176797999999988,9.8851032
2026-04-18 20:30:37.342,0.1176798,-0.03922659999999881,9.7281968
2026-04-18 20:30:37.544,0.04903325,-0.0588398999999988,9.8262633
2026-04-18 20:30:37.742,0.04903325,-0.0588398999999988,9.8262633
2026-04-18 20:30:37.944,0.04903325,-0.0588398999999988,9.8262633
2026-04-18 20:30:38.140,0.04903325,-0.0588398999999988,9.8262633
2026-04-18 20:30:38.350,-0.28439285000000003,-0.19613299999999878,9.91452315
2026-04-18 20:30:38.562,-0.22555295,-0.18632634999999878,9.83606995
2026-04-18 20:30:38.740,-0.22555295,-0.18632634999999878,9.83606995
2026-04-18 20:30:38.961,-0.22555295,-0.18632634999999878,9.83606995
2026-04-18 20:30:39.141,-0.22555295,-0.18632634999999878,9.83606995
2026-04-18 20:30:39.341,-0.22555295,-0.18632634999999878,9.83606995
2026-04-18 20:30:39.541,0.0392266,-0.0686465499999988,9.85568325
2026-04-18 20:30:39.740,0.0392266,-0.0686465499999988,9.85568325
2026-04-18 20:30:39.942,0.06864655,-0.0980664999999988,9.8654899
2026-04-18 20:30:40.141,-0.0196133,-0.08825984999999878,9.9047165
2026-04-18 20:30:40.340,0.0,-0.0392265999999988,9.8262633
2026-04-18 20:30:40.541,-0.00980665,-0.05883989999999879,9.8654899
2026-04-18 20:30:40.740,-0.00980665,-0.05883989999999879,9.8654899
2026-04-18 20:30:40.941,-0.20593965,-0.1470997499999988,9.8262633
2026-04-18 20:30:41.141,-0.28439285000000003,-0.16671304999999878,9.8654899
2026-04-18 20:30:41.341,-0.24516625,-0.17651969999999878,9.87529655
2026-04-18 20:30:41.541,-0.24516625,-0.17651969999999878,9.87529655
2026-04-18 20:30:41.742,-0.24516625,-0.17651969999999878,9.87529655
2026-04-18 20:30:41.940,-0.18632635,-0.17651969999999878,9.87529655
2026-04-18 20:30:42.140,-0.14709975,-0.17651969999999878,9.8654899
2026-04-18 20:30:42.341,-0.10787315,-0.1765196999999988,9.80665
2026-04-18 20:30:42.543,-0.1569064,-0.19613299999999878,9.8458766
2026-04-18 20:30:42.741,-0.1569064,-0.19613299999999878,9.8458766
2026-04-18 20:30:43.144,-0.1569064,-0.19613299999999878,9.8458766
2026-04-18 20:30:43.341,-0.1569064,-0.19613299999999878,9.8458766
2026-04-18 20:30:43.542,-0.1569064,-0.19613299999999878,9.87529655
2026-04-18 20:30:43.741,-0.14709975,-0.17651969999999878,9.8458766
2026-04-18 20:30:43.941,-0.14709975,-0.17651969999999878,9.8458766
2026-04-18 20:30:44.160,-0.12748645,-0.1274864499999988,9.8262633
2026-04-18 20:30:44.340,-0.14709975,-0.20593964999999878,9.8458766
2026-04-18 20:30:44.561,-0.14709975,-0.20593964999999878,9.85568325
2026-04-18 20:30:44.740,-0.14709975,-0.20593964999999878,9.85568325
2026-04-18 20:30:44.962,0.08825985,-0.0490332499999988,9.79684335
2026-04-18 20:30:45.140,0.1372931,-0.0490332499999988,9.7870367
2026-04-18 20:30:45.341,0.04903325,-0.1274864499999988,9.8654899
2026-04-18 20:30:45.540,0.04903325,-0.1274864499999988,9.8654899
2026-04-18 20:30:45.741,-0.0392266,-0.0392265999999988,9.8262633
2026-04-18 20:30:45.941,-0.00980665,0.009806650000001204,9.83606995
2026-04-18 20:30:46.140,-0.02941995,-0.05883989999999879,9.87529655
2026-04-18 20:30:46.340,-0.0588399,-0.1372930999999988,9.85568325
2026-04-18 20:30:46.562,-0.0392266,-0.0392265999999988,9.81645665
2026-04-18 20:30:46.740,-0.0392266,-0.0392265999999988,9.81645665
2026-04-18 20:30:46.961,-0.0784532,-0.0784531999999988,9.8654899
2026-04-18 20:30:47.141,-0.0784532,-0.0784531999999988,9.8654899
2026-04-18 20:30:47.340,-0.0784532,-0.03922659999999879,9.8458766
2026-04-18 20:30:47.546,-0.02941995,-0.029419949999998793,9.83606995
2026-04-18 20:30:47.740,-0.02941995,-0.029419949999998793,9.83606995
2026-04-18 20:30:47.940,-0.2549729,-0.1667130499999988,9.80665
2026-04-18 20:30:48.140,-0.2549729,-0.1667130499999988,9.80665
2026-04-18 20:30:48.340,-0.28439285000000003,-0.16671304999999878,9.83606995
2026-04-18 20:30:48.640,-0.16671305,-0.19613299999999878,9.85568325
2026-04-18 20:30:48.941,-0.18632635,-0.1863263499999988,9.7870367
2026-04-18 20:30:49.141,-0.1765197,-0.17651969999999878,9.8262633
2026-04-18 20:30:49.340,-0.16671305,-0.16671304999999878,9.8851032
2026-04-18 20:30:49.540,-0.16671305,-0.19613299999999878,9.83606995
2026-04-18 20:30:49.741,0.0,-0.1470997499999988,9.8262633
2026-04-18 20:30:49.940,0.0980665,-0.06864654999999881,9.77723005
2026-04-18 20:30:50.137,0.0980665,-0.06864654999999881,9.77723005
2026-04-18 20:30:50.340,-0.0392266,-0.0882598499999988,9.87529655
2026-04-18 20:30:50.540,-0.0588399,-0.0686465499999988,9.8262633
2026-04-18 20:30:50.742,-0.0392266,-0.03922659999999879,9.83606995
2026-04-18 20:30:50.944,-0.0588399,-0.0784531999999988,9.80665
2026-04-18 20:30:51.144,-0.0588399,-0.0784531999999988,9.80665
2026-04-18 20:30:51.340,-0.32361945000000003,-0.19613299999999878,9.93413645
2026-04-18 20:30:51.544,-0.32361945000000003,-0.19613299999999878,9.93413645
2026-04-18 20:30:51.740,-0.32361945000000003,-0.19613299999999878,9.93413645
2026-04-18 20:30:51.940,0.0588399,-0.0686465499999988,9.81645665
2026-04-18 20:30:52.140,0.0784532,-0.0686465499999988,9.7870367
2026-04-18 20:30:52.340,-0.00980665,-0.1078731499999988,9.8458766
2026-04-18 20:30:52.542,-0.06864655,-0.09806649999999878,9.89490985
2026-04-18 20:30:52.740,-0.06864655,-0.09806649999999878,9.89490985
2026-04-18 20:30:52.960,-0.0588399,-0.0588398999999988,9.8458766
2026-04-18 20:30:53.140,-0.0784532,-0.0588398999999988,9.8262633
2026-04-18 20:30:53.340,-0.06864655,-0.0588398999999988,9.8262633
2026-04-18 20:30:53.542,-0.0588399,-0.0588398999999988,9.83606995
2026-04-18 20:30:53.745,-0.04903325,-0.0686465499999988,9.8262633
2026-04-18 20:30:53.943,-0.04903325,-0.0686465499999988,9.8262633
2026-04-18 20:30:54.140,-0.12748645,-0.04903324999999879,9.8851032
2026-04-18 20:30:54.341,-0.08825985,-0.0490332499999988,9.81645665
2026-04-18 20:30:54.561,-0.08825985,-0.0490332499999988,9.81645665
2026-04-18 20:30:54.740,-0.0980665,-0.0686465499999988,9.85568325
2026-04-18 20:30:54.961,-0.20593965,-0.1078731499999988,9.81645665
2026-04-18 20:30:55.140,-0.32361945000000003,-0.1470997499999988,9.87529655
2026-04-18 20:30:55.343,-0.3138128,-0.17651969999999878,9.87529655
2026-04-18 20:30:55.540,-0.2157463,-0.18632634999999878,9.8262633
2026-04-18 20:30:55.741,-0.1569064,-0.16671304999999878,9.8262633
2026-04-18 20:30:55.941,-0.1765197,-0.16671304999999878,9.85568325
2026-04-18 20:30:56.140,-0.196133,-0.18632634999999878,9.85568325
2026-04-18 20:30:56.339,-0.196133,-0.17651969999999878,9.83606995
2026-04-18 20:30:56.540,-0.1765197,-0.1765196999999988,9.80665
2026-04-18 20:30:56.741,-0.1765197,-0.17651969999999878,9.8262633
2026-04-18 20:30:56.941,-0.1765197,-0.17651969999999878,9.8851032
2026-04-18 20:30:57.139,-0.1176798,-0.1569063999999988,9.8654899
2026-04-18 20:30:57.344,-0.0196133,-0.1176797999999988,9.8654899
2026-04-18 20:30:57.540,0.04903325,-0.1176797999999988,9.81645665
2026-04-18 20:30:57.740,0.0980665,-0.07845319999999881,9.7674234
2026-04-18 20:30:57.942,0.00980665,-0.03922659999999879,9.8654899
2026-04-18 20:30:58.139,-0.04903325,-0.05883989999999879,9.91452315
2026-04-18 20:30:58.340,-0.02941995,-0.0980664999999988,9.8262633
2026-04-18 20:30:58.540,0.0,-0.0686465499999988,9.81645665
2026-04-18 20:30:58.740,-0.0588399,-0.01961329999999879,9.8851032
2026-04-18 20:30:58.942,-0.06864655,-0.0686465499999988,9.8458766
2026-04-18 20:30:59.140,-0.06864655,-0.0686465499999988,9.8458766
2026-04-18 20:30:59.340,-0.1569064,-0.0980664999999988,9.85568325
2026-04-18 20:30:59.541,-0.26477955,-0.12748644999999878,9.9047165
2026-04-18 20:30:59.744,-0.26477955,-0.12748644999999878,9.9047165
2026-04-18 20:30:59.942,-0.2157463,-0.20593964999999878,9.83606995
2026-04-18 20:31:00.140,-0.16671305,-0.16671304999999878,9.8458766
2026-04-18 20:31:00.340,-0.16671305,-0.1274864499999988,9.80665
2026-04-18 20:31:00.542,-0.20593965,-0.18632634999999878,9.85568325
2026-04-18 20:31:00.740,-0.20593965,-0.18632634999999878,9.85568325
2026-04-18 20:31:00.947,-0.20593965,-0.18632634999999878,9.85568325
2026-04-18 20:31:01.139,-0.20593965,-0.18632634999999878,9.85568325
2026-04-18 20:31:01.342,-0.18632635,-0.19613299999999878,9.8851032
2026-04-18 20:31:01.540,-0.1765197,-0.20593964999999878,9.85568325
2026-04-18 20:31:01.740,-0.1765197,-0.20593964999999878,9.85568325
2026-04-18 20:31:01.942,-0.14709975,-0.1372930999999988,9.85568325
2026-04-18 20:31:02.141,-0.02941995,-0.11767979999999878,9.91452315
2026-04-18 20:31:02.343,-0.02941995,-0.11767979999999878,9.91452315
2026-04-18 20:31:02.541,-0.02941995,-0.11767979999999878,9.91452315
2026-04-18 20:31:02.742,0.0,-0.0686465499999988,9.89490985
2026-04-18 20:31:02.940,-0.0392266,-0.1078731499999988,9.8654899
2026-04-18 20:31:03.140,-0.04903325,-0.0784531999999988,9.83606995
2026-04-18 20:31:03.340,-0.02941995,-0.03922659999999879,9.8458766
2026-04-18 20:31:03.542,-0.04903325,-0.0588398999999988,9.81645665
2026-04-18 20:31:03.740,-0.04903325,-0.0588398999999988,9.81645665
2026-04-18 20:31:03.941,-0.0588399,-0.0686465499999988,9.8458766
2026-04-18 20:31:04.141,-0.14709975,-0.0980664999999988,9.81645665
2026-04-18 20:31:04.345,-0.28439285000000003,-0.1569063999999988,9.8851032
2026-04-18 20:31:04.541,-0.3138128,-0.19613299999999878,9.8851032
2026-04-18 20:31:04.741,-0.3138128,-0.19613299999999878,9.8851032
2026-04-18 20:31:04.940,-0.3138128,-0.19613299999999878,9.8851032
2026-04-18 20:31:05.141,-0.3138128,-0.19613299999999878,9.8851032
2026-04-18 20:31:05.347,-0.3138128,-0.19613299999999878,9.8851032
2026-04-18 20:31:05.541,-0.3138128,-0.19613299999999878,9.8851032
2026-04-18 20:31:05.741,-0.3138128,-0.19613299999999878,9.8851032
2026-04-18 20:31:05.940,-0.3138128,-0.19613299999999878,9.8851032
2026-04-18 20:31:06.139,-0.3138128,-0.19613299999999878,9.8851032
2026-04-18 20:31:06.343,-0.14709975,-0.21574629999999878,9.85568325
2026-04-18 20:31:06.540,-0.14709975,-0.23535959999999878,9.8262633
2026-04-18 20:31:06.740,-0.1569064,-0.1470997499999988,9.8262633
2026-04-18 20:31:06.940,0.02941995,-0.01961329999999878,9.9831697
2026-04-18 20:31:07.140,0.0980665,-0.0882598499999988,9.7870367
2026-04-18 20:31:07.345,0.10787315,-0.07845319999999881,9.77723005
2026-04-18 20:31:07.541,0.0,-0.0784531999999988,9.87529655
2026-04-18 20:31:07.741,-0.3726527,-0.0882598499999988,9.77723005
2026-04-18 20:31:07.941,-0.3726527,-0.0882598499999988,9.77723005
2026-04-18 20:31:08.140,-0.3726527,-0.0882598499999988,9.77723005
2026-04-18 20:31:08.342,-0.2549729,-0.0588398999999988,9.80665
2026-04-18 20:31:08.540,-0.16671305,-0.0882598499999988,9.79684335
2026-04-18 20:31:08.741,-0.22555295,-0.0882598499999988,9.8458766
2026-04-18 20:31:08.940,-0.2745862,-0.0882598499999988,9.85568325
2026-04-18 20:31:09.139,-0.2745862,-0.0882598499999988,9.85568325
2026-04-18 20:31:09.341,0.196133,-0.0784531999999988,9.81645665
2026-04-18 20:31:09.539,0.02941995,-0.07845319999999882,9.5909037
2026-04-18 20:31:09.740,-0.30400615,-0.06864654999999878,9.97336305
2026-04-18 20:31:09.941,-0.5099458,-0.08825984999999878,9.95374975
2026-04-18 20:31:10.140,-0.30400615,-0.0882598499999988,9.80665
2026-04-18 20:31:10.339,-0.04903325,-0.0980664999999988,9.81645665
2026-04-18 20:31:10.540,-0.06864655,-0.06864654999999881,9.75761675
2026-04-18 20:31:10.748,-0.24516625,-0.0588398999999988,9.8262633
2026-04-18 20:31:10.939,-0.3138128,-0.09806649999999878,9.97336305
2026-04-18 20:31:11.145,-0.16671305,-0.0980664999999988,9.83606995
2026-04-18 20:31:11.339,-0.08825985,-0.06864654999999881,9.7281968
2026-04-18 20:31:11.541,-0.14709975,-0.0686465499999988,9.87529655
2026-04-18 20:31:11.741,-0.14709975,-0.0686465499999988,9.87529655
2026-04-18 20:31:11.944,-0.14709975,-0.0686465499999988,9.87529655
2026-04-18 20:31:12.139,-0.14709975,-0.0686465499999988,9.87529655
2026-04-18 20:31:12.339,-0.1372931,-0.0686465499999988,9.85568325
2026-04-18 20:31:12.540,-0.2745862,-0.08825984999999882,9.73800345
2026-04-18 20:31:12.741,-0.3530394,-0.08825984999999878,9.97336305
2026-04-18 20:31:12.946,-0.2745862,-0.0784531999999988,9.89490985
2026-04-18 20:31:13.139,0.0,-0.08825984999999882,9.71839015
2026-04-18 20:31:13.341,0.02941995,-0.0882598499999988,9.83606995
2026-04-18 20:31:13.541,0.0980665,-0.009806649999998791,9.8654899
2026-04-18 20:31:13.740,-0.1765197,-0.07845319999999881,9.7674234
2026-04-18 20:31:13.940,-0.69627215,-0.1274864499999988,9.85568325
2026-04-18 20:31:14.140,-0.77472535,-0.05883989999999878,9.95374975
2026-04-18 20:31:14.340,-0.4707192,-0.04903324999999879,9.8851032
2026-04-18 20:31:14.540,0.0784532,-0.0686465499999988,9.8262633
2026-04-18 20:31:14.739,0.0784532,-0.0686465499999988,9.8262633
2026-04-18 20:31:15.137,0.0,-0.0882598499999988,9.80665
2026-04-18 20:31:15.340,-0.32361945000000003,-0.07845319999999878,9.95374975
2026-04-18 20:31:15.537,0.0196133,-0.1078731499999988,9.7674234
2026-04-18 20:31:15.750,0.1176798,-0.09806649999999882,9.7085835
2026-04-18 20:31:15.942,0.1176798,-0.09806649999999882,9.7085835
2026-04-18 20:31:16.139,0.1176798,-0.09806649999999882,9.7085835
2026-04-18 20:31:16.337,-0.196133,-0.1274864499999988,9.8262633
2026-04-18 20:31:16.541,0.0,-0.1176797999999988,9.7674234
2026-04-18 20:31:16.746,0.0,-0.1176797999999988,9.7674234
2026-04-18 20:31:16.940,0.0,-0.1176797999999988,9.7674234
2026-04-18 20:31:17.140,-0.2353596,-0.08825984999999878,9.89490985
2026-04-18 20:31:17.339,-0.1372931,-0.1176797999999988,9.8458766
2026-04-18 20:31:17.539,-0.0392266,-0.06864654999999881,9.7674234
2026-04-18 20:31:17.739,-0.0980665,-0.0588398999999988,9.81645665
2026-04-18 20:31:17.940,-0.18632635,-0.0882598499999988,9.8851032
2026-04-18 20:31:18.139,-0.16671305,-0.0980664999999988,9.87529655
2026-04-18 20:31:18.340,-0.10787315,-0.0882598499999988,9.8458766
2026-04-18 20:31:18.539,-0.10787315,-0.0882598499999988,9.8458766
2026-04-18 20:31:18.740,-0.10787315,-0.0882598499999988,9.8458766
2026-04-18 20:31:18.941,-0.1765197,-0.0980664999999988,9.8458766
2026-04-18 20:31:19.139,-0.1765197,-0.0980664999999988,9.8458766
2026-04-18 20:31:19.338,-0.1765197,-0.0980664999999988,9.8458766
2026-04-18 20:31:19.540,-0.08825985,-0.0588398999999988,9.81645665
2026-04-18 20:31:19.741,-0.08825985,-0.0588398999999988,9.81645665
2026-04-18 20:31:19.940,-0.08825985,-0.0588398999999988,9.81645665
2026-04-18 20:31:20.141,-0.08825985,-0.0588398999999988,9.81645665
2026-04-18 20:31:20.339,-0.0784532,-0.0392265999999988,9.8262633
2026-04-18 20:31:20.541,-0.10787315,-0.0686465499999988,9.85568325
2026-04-18 20:31:20.742,-0.1569064,-0.0980664999999988,9.85568325
2026-04-18 20:31:21.139,-0.1176798,-0.0686465499999988,9.8458766
2026-04-18 20:31:21.340,-0.08825985,-0.0588398999999988,9.79684335
2026-04-18 20:31:21.543,-0.1176798,-0.0784531999999988,9.79684335
2026-04-18 20:31:21.739,-0.1176798,-0.0784531999999988,9.79684335
2026-04-18 20:31:21.941,-0.1176798,-0.0784531999999988,9.79684335
2026-04-18 20:31:22.140,-0.08825985,-0.0686465499999988,9.8262633
2026-04-18 20:31:22.339,-0.08825985,-0.0686465499999988,9.81645665
2026-04-18 20:31:22.540,-0.1372931,-0.0980664999999988,9.8262633
2026-04-18 20:31:22.737,-0.1765197,-0.0980664999999988,9.85568325
2026-04-18 20:31:22.941,-0.14709975,-0.05883989999999879,9.8654899
2026-04-18 20:31:23.140,-0.10787315,-0.0588398999999988,9.83606995
2026-04-18 20:31:23.339,-0.10787315,-0.1078731499999988,9.80665
2026-04-18 20:31:23.541,-0.12748645,-0.1078731499999988,9.83606995
2026-04-18 20:31:23.740,-0.12748645,-0.1078731499999988,9.83606995
2026-04-18 20:31:23.939,-0.14709975,-0.04903324999999879,9.8654899
2026-04-18 20:31:24.139,-0.10787315,-0.0980664999999988,9.8458766
2026-04-18 20:31:24.339,-0.10787315,-0.1078731499999988,9.8262633
2026-04-18 20:31:24.540,-0.1372931,-0.0784531999999988,9.8262633
2026-04-18 20:31:24.744,-0.1569064,-0.0588398999999988,9.8458766
2026-04-18 20:31:24.940,-0.1372931,-0.0686465499999988,9.8654899
2026-04-18 20:31:25.140,-0.10787315,-0.0980664999999988,9.8458766
2026-04-18 20:31:25.340,-0.0980665,-0.0882598499999988,9.8262633
2026-04-18 20:31:25.740,-0.1372931,-0.0686465499999988,9.83606995
2026-04-18 20:31:25.939,-0.1372931,-0.0686465499999988,9.83606995
2026-04-18 20:31:26.141,-0.0980665,-0.0980664999999988,9.81645665
2026-04-18 20:31:26.339,-0.0980665,-0.0980664999999988,9.81645665
2026-04-18 20:31:26.799,-0.12748645,-0.0882598499999988,9.85568325
2026-04-18 20:31:27.038,-0.1176798,-0.0686465499999988,9.85568325
2026-04-18 20:31:27.299,-0.1176798,-0.0784531999999988,9.81645665
2026-04-18 20:31:27.546,-0.14709975,-0.0980664999999988,9.8458766
2026-04-18 20:31:27.801,-0.1176798,-0.0686465499999988,9.8458766
2026-04-18 20:31:28.037,-0.1176798,-0.0686465499999988,9.8458766
2026-04-18 20:31:28.299,-0.12748645,-0.0784531999999988,9.87529655
2026-04-18 20:31:28.547,-0.14709975,-0.0980664999999988,9.8262633
2026-04-18 20:31:28.799,-0.14709975,-0.0490332499999988,9.83606995
2026-04-18 20:31:29.038,-0.10787315,-0.0588398999999988,9.8262633
2026-04-18 20:31:29.298,-0.0980665,-0.1078731499999988,9.83606995
2026-04-18 20:31:29.799,-0.12748645,-0.0588398999999988,9.83606995
2026-04-18 20:31:30.038,-0.08825985,-0.0980664999999988,9.8262633
2026-04-18 20:31:30.299,-0.10787315,-0.0980664999999988,9.81645665
2026-04-18 20:31:30.550,-0.1569064,-0.0686465499999988,9.87529655
2026-04-18 20:31:30.799,-0.1176798,-0.0980664999999988,9.8654899
2026-04-18 20:31:31.038,-0.10787315,-0.0784531999999988,9.8262633
2026-04-18 20:31:31.299,-0.1372931,-0.0588398999999988,9.8262633
2026-04-18 20:31:31.547,-0.1372931,-0.1078731499999988,9.8262633
2026-04-18 20:31:31.799,-0.1176798,-0.0784531999999988,9.8458766
2026-04-18 20:31:32.039,-0.1176798,-0.0784531999999988,9.8458766
2026-04-18 20:31:32.300,-0.1372931,-0.0686465499999988,9.85568325
2026-04-18 20:31:32.566,-0.1176798,-0.0882598499999988,9.80665
2026-04-18 20:31:32.797,-0.1176798,-0.0588398999999988,9.8262633
2026-04-18 20:31:33.039,-0.1176798,-0.0588398999999988,9.8262633
2026-04-18 20:31:33.299,-0.14709975,-0.0980664999999988,9.87529655
2026-04-18 20:31:33.548,-0.1176798,-0.0686465499999988,9.81645665
2026-04-18 20:31:33.798,-0.12748645,-0.0490332499999988,9.81645665
2026-04-18 20:31:34.139,-0.1372931,-0.0784531999999988,9.8458766
2026-04-18 20:31:34.340,-0.1372931,-0.0980664999999988,9.85568325
2026-04-18 20:31:34.560,-0.12748645,-0.0784531999999988,9.8458766
2026-04-18 20:31:34.739,-0.12748645,-0.0686465499999988,9.8458766
2026-04-18 20:31:34.939,-0.1372931,-0.0686465499999988,9.8458766
2026-04-18 20:31:35.139,-0.1176798,-0.0882598499999988,9.8458766
2026-04-18 20:31:35.338,-0.1176798,-0.0784531999999988,9.83606995
2026-04-18 20:31:35.540,-0.14709975,-0.0686465499999988,9.85568325
2026-04-18 20:31:35.739,-0.14709975,-0.0686465499999988,9.85568325
2026-04-18 20:31:35.938,-0.1176798,-0.0882598499999988,9.83606995
2026-04-18 20:31:36.158,-0.08825985,-0.0882598499999988,9.81645665
2026-04-18 20:31:36.337,-0.14709975,-0.0686465499999988,9.8458766
2026-04-18 20:31:36.539,-0.1765197,-0.0686465499999988,9.85568325
2026-04-18 20:31:36.740,-0.1372931,-0.0784531999999988,9.85568325
2026-04-18 20:31:36.960,-0.08825985,-0.0882598499999988,9.81645665
2026-04-18 20:31:37.142,-0.1176798,-0.0882598499999988,9.83606995
2026-04-18 20:31:37.342,-0.1176798,-0.0882598499999988,9.83606995
2026-04-18 20:31:37.559,-0.1176798,-0.0882598499999988,9.83606995
2026-04-18 20:31:37.741,-0.12748645,-0.0784531999999988,9.81645665
2026-04-18 20:31:37.939,-0.1176798,-0.0980664999999988,9.83606995
2026-04-18 20:31:38.160,-0.12748645,-0.0980664999999988,9.85568325
2026-04-18 20:31:38.339,-0.1372931,-0.0686465499999988,9.85568325
2026-04-18 20:31:38.539,-0.1372931,-0.0490332499999988,9.83606995
2026-04-18 20:31:38.739,-0.1176798,-0.0686465499999988,9.8262633
2026-04-18 20:31:38.940,-0.1176798,-0.1078731499999988,9.83606995
2026-04-18 20:31:39.139,-0.14709975,-0.1078731499999988,9.85568325
2026-04-18 20:31:39.338,-0.14709975,-0.04903324999999879,9.85568325
2026-04-18 20:31:39.541,-0.12748645,-0.0490332499999988,9.8262633
2026-04-18 20:31:39.741,-0.12748645,-0.0490332499999988,9.8262633
2026-04-18 20:31:39.940,-0.12748645,-0.1078731499999988,9.85568325
2026-04-18 20:31:40.138,-0.1372931,-0.0588398999999988,9.8458766
2026-04-18 20:31:40.339,-0.14709975,-0.0686465499999988,9.83606995
2026-04-18 20:31:40.559,-0.14709975,-0.0882598499999988,9.83606995
2026-04-18 20:31:40.740,-0.10787315,-0.0686465499999988,9.83606995
2026-04-18 20:31:40.959,-0.10787315,-0.0686465499999988,9.83606995
2026-04-18 20:31:41.149,-0.1372931,-0.0882598499999988,9.8654899
2026-04-18 20:31:41.340,-0.14709975,-0.0784531999999988,9.85568325
2026-04-18 20:31:41.539,-0.1372931,-0.0686465499999988,9.8262633
2026-04-18 20:31:41.738,-0.1176798,-0.0980664999999988,9.80665
2026-04-18 20:31:41.938,-0.1176798,-0.0882598499999988,9.83606995
2026-04-18 20:31:42.138,-0.14709975,-0.05883989999999879,9.89490985
2026-04-18 20:31:42.338,-0.1372931,-0.05883989999999879,9.85568325
2026-04-18 20:31:42.561,-0.1176798,-0.0882598499999988,9.81645665
2026-04-18 20:31:42.739,-0.1372931,-0.0882598499999988,9.83606995
2026-04-18 20:31:42.959,-0.1569064,-0.0882598499999988,9.8458766
2026-04-18 20:31:43.138,-0.12748645,-0.0784531999999988,9.85568325
2026-04-18 20:31:43.338,-0.10787315,-0.0686465499999988,9.8458766
2026-04-18 20:31:43.539,-0.1176798,-0.0686465499999988,9.8262633
2026-04-18 20:31:43.738,-0.14709975,-0.0784531999999988,9.8458766
2026-04-18 20:31:43.939,-0.1569064,-0.0784531999999988,9.8654899
2026-04-18 20:31:44.138,-0.1176798,-0.0882598499999988,9.8262633
2026-04-18 20:31:44.338,-0.0980665,-0.0686465499999988,9.81645665
2026-04-18 20:31:44.540,-0.12748645,-0.0686465499999988,9.8654899
2026-04-18 20:31:44.738,-0.12748645,-0.0686465499999988,9.8654899
2026-04-18 20:31:44.960,-0.14709975,-0.0882598499999988,9.83606995
2026-04-18 20:31:45.139,-0.0980665,-0.0686465499999988,9.80665
2026-04-18 20:31:45.338,-0.0980665,-0.0686465499999988,9.80665
2026-04-18 20:31:45.538,-0.0980665,-0.0686465499999988,9.80665
2026-04-18 20:31:45.739,-0.14709975,-0.0784531999999988,9.8654899
2026-04-18 20:31:45.939,-0.1372931,-0.0588398999999988,9.83606995
2026-04-18 20:31:46.146,-0.12748645,-0.0686465499999988,9.8262633
2026-04-18 20:31:46.338,-0.1176798,-0.0980664999999988,9.83606995
2026-04-18 20:31:46.538,-0.1176798,-0.0882598499999988,9.8458766
2026-04-18 20:31:46.736,-0.1372931,-0.0588398999999988,9.83606995
